Milliseconds,GyroX,GyroY,GyroZ
1000,-0.13404255319148936,-0.4829787234042553,-0.2553191489361702
1010.10101010101,-0.24574468085106382,-0.4829787234042553,-0.23404255319148937
1020.2020202020202,-0.3148936170212766,-0.5180851063829788,-0.17553191489361702
1030.3030303030303,-0.3372340425531915,-0.5797872340425532,-0.1202127659574468
1040.4040404040404,-0.3404255319148936,-0.6457446808510638,-0.09680851063829787
1050.5050505050506,-0.33404255319148934,-0.7063829787234043,-0.08723404255319149
1060.6060606060605,-0.3159574468085106,-0.7755319148936171,-0.06914893617021277
1070.7070707070707,-0.29148936170212764,-0.8617021276595744,-0.03829787234042553
1080.8080808080808,-0.26170212765957446,-0.9627659574468085,-0.01276595744680851
1090.909090909091,-0.2170212765957447,-1.047872340425532,0
1101.010101010101,-0.13936170212765958,-1.0925531914893618,-0.011702127659574468
1111.111111111111,-0.035106382978723406,-1.098936170212766,-0.052127659574468084
1121.2121212121212,0.0574468085106383,-1.0648936170212766,-0.09787234042553192
1131.3131313131312,0.1074468085106383,-0.9893617021276596,-0.14574468085106382
1141.4141414141413,0.11702127659574468,-0.8819148936170212,-0.16382978723404254
1151.5151515151515,0.15319148936170213,-0.7723404255319148,-0.14361702127659576
1161.6161616161617,0.2127659574468085,-0.6680851063829787,-0.08936170212765958
1171.7171717171718,0.26170212765957446,-0.5819148936170213,-0.026595744680851064
1181.8181818181818,0.26595744680851063,-0.5063829787234042,0.018085106382978722
1191.919191919192,0.2542553191489362,-0.41702127659574467,0.009574468085106383
1202.020202020202,0.2776595744680851,-0.3127659574468085,-0.03404255319148936
1212.121212121212,0.2648936170212766,-0.23404255319148937,-0.08404255319148936
1222.2222222222222,0.18723404255319148,-0.1851063829787234,-0.11808510638297873
1232.3232323232323,0.06382978723404255,-0.15212765957446808,-0.15
1242.4242424242425,-0.059574468085106386,-0.13936170212765958,-0.17340425531914894
1252.5252525252524,-0.13191489361702127,-0.1425531914893617,-0.18829787234042553
1262.6262626262626,-0.17446808510638298,-0.14680851063829786,-0.22127659574468084
1272.7272727272727,-0.19148936170212766,-0.13085106382978723,-0.2648936170212766
1282.8282828282827,-0.16914893617021276,-0.09787234042553192,-0.2925531914893617
1292.9292929292928,-0.1574468085106383,-0.06489361702127659,-0.2936170212765957
1303.030303030303,-0.14361702127659576,-0.007446808510638298,-0.24148936170212765
1313.1313131313132,-0.13936170212765958,0.06595744680851064,-0.16595744680851063
1323.2323232323233,-0.14680851063829786,0.16702127659574467,-0.09361702127659574
1333.3333333333333,-0.17340425531914894,0.2851063829787234,-0.05106382978723404
1343.4343434343434,-0.23191489361702128,0.4031914893617021,-0.01702127659574468
1353.5353535353536,-0.2723404255319149,0.5085106382978724,0.05425531914893617
1363.6363636363635,-0.3351063829787234,0.5989361702127659,0.1574468085106383
1373.7373737373737,-0.4148936170212766,0.6734042553191489,0.24893617021276596
1383.8383838383838,-0.5,0.7531914893617021,0.3180851063829787
1393.939393939394,-0.5765957446808511,0.8159574468085107,0.37872340425531914
1404.0404040404042,-0.6276595744680851,0.847872340425532,0.41914893617021276
1414.141414141414,-0.6372340425531915,0.8808510638297873,0.4308510638297872
1424.2424242424242,-0.6170212765957447,0.9329787234042554,0.37872340425531914
1434.3434343434342,-0.5989361702127659,1.0063829787234042,0.26063829787234044
1444.4444444444443,-0.5914893617021276,1.0851063829787233,0.13404255319148936
1454.5454545454545,-0.551063829787234,1.1776595744680851,0.036170212765957444
1464.6464646464647,-0.44893617021276594,1.274468085106383,-0.006382978723404255
1474.7474747474748,-0.33404255319148934,1.3212765957446808,0.006382978723404255
1484.8484848484848,-0.2702127659574468,1.3351063829787233,0.07340425531914893
1494.949494949495,-0.31170212765957445,1.3340425531914895,0.13829787234042554
1505.050505050505,-0.3946808510638298,1.351063829787234,0.20106382978723406
1515.151515151515,-0.44680851063829785,1.3436170212765957,0.26170212765957446
1525.2525252525252,-0.37659574468085105,1.303191489361702,0.33617021276595743
1535.3535353535353,-0.28404255319148936,1.2117021276595745,0.41808510638297874
1545.4545454545455,-0.15638297872340426,1.0872340425531914,0.49148936170212765
1555.5555555555557,-0.047872340425531915,0.925531914893617,0.4978723404255319
1565.6565656565656,0.023404255319148935,0.7606382978723404,0.44361702127659575
1575.7575757575758,0.12127659574468085,0.6095744680851064,0.3127659574468085
1585.8585858585857,0.15,0.4925531914893617,0.20212765957446807
1595.9595959595958,0.13191489361702127,0.4276595744680851,0.16808510638297872
1606.060606060606,0.08829787234042553,0.39787234042553193,0.20212765957446807
1616.1616161616162,0.039361702127659576,0.4085106382978723,0.26170212765957446
1626.2626262626263,-0.043617021276595745,0.4297872340425532,0.26382978723404255
1636.3636363636365,-0.15638297872340426,0.4425531914893617,0.22234042553191488
1646.4646464646464,-0.24893617021276596,0.43617021276595747,0.13085106382978723
1656.5656565656564,-0.23085106382978723,0.4319148936170213,0.036170212765957444
1666.6666666666665,-0.12127659574468085,0.4329787234042553,-0.05531914893617021
1676.7676767676767,-0.031914893617021274,0.41595744680851066,-0.09148936170212765
1686.8686868686868,0.029787234042553193,0.3606382978723404,-0.06808510638297872
1696.969696969697,0.030851063829787233,0.28297872340425534,-0.026595744680851064
1707.0707070707072,0.01276595744680851,0.20638297872340425,-0.02127659574468085
1717.171717171717,0.02872340425531915,0.16702127659574467,-0.05
1727.2727272727273,0.045744680851063826,0.16702127659574467,-0.06170212765957447
1737.3737373737372,-0.023404255319148935,0.1776595744680851,-0.02872340425531915
1747.4747474747473,-0.13404255319148936,0.20212765957446807,0.03297872340425532
1757.5757575757575,-0.2478723404255319,0.2127659574468085,0.09680851063829787
1767.6767676767677,-0.3414893617021277,0.20212765957446807,0.09893617021276596
1777.7777777777778,-0.34361702127659577,0.2127659574468085,0.027659574468085105
1787.878787878788,-0.32127659574468087,0.23404255319148937,-0.0925531914893617
1797.979797979798,-0.32978723404255317,0.275531914893617,-0.2053191489361702
1808.080808080808,-0.3372340425531915,0.3351063829787234,-0.26382978723404255
1818.181818181818,-0.3617021276595745,0.4117021276595745,-0.23829787234042554
1828.2828282828282,-0.3202127659574468,0.4968085106382979,-0.15851063829787235
1838.3838383838383,-0.2297872340425532,0.5893617021276596,-0.09787234042553192
1848.4848484848485,-0.10425531914893617,0.6904255319148936,-0.1
1858.5858585858587,-0.1276595744680851,0.7510638297872341,-0.11808510638297873
1868.6868686868686,-0.2904255319148936,0.7414893617021276,-0.09680851063829787
1878.7878787878788,-0.48936170212765956,0.6563829787234042,-0.035106382978723406
1888.8888888888887,-0.7446808510638298,0.5053191489361702,0.06489361702127659
1898.9898989898988,-0.8063829787234043,0.3351063829787234,0.15425531914893617
1909.090909090909,-0.6702127659574468,0.17872340425531916,0.19680851063829788
1919.1919191919192,-0.39680851063829786,0.039361702127659576,0.18404255319148935
1929.2929292929293,-0.15319148936170213,-0.05,0.08936170212765958
1939.3939393939395,-0.0010638297872340426,-0.05425531914893617,-0.07021276595744681
1949.4949494949494,0.07553191489361702,0.013829787234042552,-0.2404255319148936
1959.5959595959596,0.12127659574468085,0.12659574468085105,-0.3829787234042553
1969.6969696969695,0.15,0.22872340425531915,-0.44361702127659575
1979.7979797979797,0.15638297872340426,0.2797872340425532,-0.4148936170212766
1989.8989898989898,0.16276595744680852,0.26276595744680853,-0.32127659574468087
2000,0.19042553191489361,0.20851063829787234,-0.2127659574468085
2010.1010101010102,0.16489361702127658,0.1574468085106383,-0.14574468085106382
2020.20202020202,0.14468085106382977,0.1372340425531915,-0.1351063829787234
2030.3030303030303,0.14042553191489363,0.14893617021276595,-0.18085106382978725
2040.4040404040404,0.1351063829787234,0.1797872340425532,-0.26276595744680853
2050.5050505050503,0.14042553191489363,0.225531914893617,-0.3617021276595745
2060.6060606060605,0.1797872340425532,0.2734042553191489,-0.4276595744680851
2070.7070707070707,0.20957446808510638,0.298936170212766,-0.4297872340425532
2080.808080808081,0.1819148936170213,0.28297872340425534,-0.3882978723404255
2090.909090909091,0.1074468085106383,0.25,-0.3074468085106383
2101.010101010101,0.04893617021276596,0.19148936170212766,-0.22234042553191488
2111.1111111111113,-0.010638297872340425,0.12659574468085105,-0.14468085106382977
2121.212121212121,-0.02127659574468085,0.05106382978723404,-0.06914893617021277
2131.313131313131,-0.029787234042553193,-0.04042553191489362,-0.005319148936170213
2141.4141414141413,0.009574468085106383,-0.11914893617021277,0.05531914893617021
2151.5151515151515,0.09893617021276596,-0.18404255319148935,0.08829787234042553
2161.6161616161617,0.16702127659574467,-0.22659574468085106,0.0851063829787234
2171.717171717172,0.21170212765957447,-0.2276595744680851,0.039361702127659576
2181.818181818182,0.22659574468085106,-0.1851063829787234,-0.02446808510638298
2191.9191919191917,0.26170212765957446,-0.1148936170212766,-0.07127659574468086
2202.020202020202,0.30638297872340425,-0.04893617021276596,-0.07234042553191489
2212.121212121212,0.3372340425531915,-0.014893617021276596,-0.06595744680851064
2222.222222222222,0.3372340425531915,0.014893617021276596,-0.06914893617021277
2232.3232323232323,0.28936170212765955,0.04148936170212766,-0.09787234042553192
2242.4242424242425,0.22021276595744682,0.07127659574468086,-0.13297872340425532
2252.5252525252527,0.13617021276595745,0.08723404255319149,-0.1595744680851064
2262.6262626262624,0.07340425531914893,0.09574468085106383,-0.15425531914893617
2272.7272727272725,0.05319148936170213,0.06702127659574468,-0.12127659574468085
2282.8282828282827,0.052127659574468084,0.018085106382978722,-0.07021276595744681
2292.929292929293,0.05,-0.022340425531914895,-0.027659574468085105
2303.030303030303,0.052127659574468084,-0.022340425531914895,0.005319148936170213
2313.131313131313,0.04680851063829787,0.019148936170212766,0.00425531914893617
2323.2323232323233,0.04148936170212766,0.09468085106382979,-0.02127659574468085
2333.3333333333335,-0.002127659574468085,0.16914893617021276,-0.0851063829787234
2343.4343434343436,-0.10106382978723404,0.2170212765957447,-0.16382978723404254
2353.5353535353534,-0.17340425531914894,0.2351063829787234,-0.20319148936170212
2363.6363636363635,-0.1851063829787234,0.21595744680851064,-0.19680851063829788
2373.7373737373737,-0.20106382978723406,0.16808510638297872,-0.14574468085106382
2383.838383838384,-0.1946808510638298,0.10106382978723404,-0.05106382978723404
2393.939393939394,-0.18085106382978725,0.027659574468085105,0.06170212765957447
2404.040404040404,-0.10425531914893617,-0.022340425531914895,0.15212765957446808
2414.1414141414143,-0.06914893617021277,-0.04042553191489362,0.22127659574468084
2424.242424242424,-0.014893617021276596,-0.019148936170212766,0.2372340425531915
2434.343434343434,0.03829787234042553,0.03829787234042553,0.18829787234042553
2444.4444444444443,0.06382978723404255,0.1202127659574468,0.10957446808510639
2454.5454545454545,0.07021276595744681,0.1925531914893617,0.010638297872340425
2464.6464646464647,0.05,0.2393617021276596,-0.052127659574468084
2474.747474747475,0.03297872340425532,0.23617021276595745,-0.07446808510638298
2484.848484848485,0.026595744680851064,0.2,-0.04680851063829787
2494.9494949494947,0.006382978723404255,0.13617021276595745,0.007446808510638298
2505.050505050505,-0.01702127659574468,0.0851063829787234,0.059574468085106386
2515.151515151515,-0.018085106382978722,0.06808510638297872,0.07446808510638298
2525.252525252525,0.02553191489361702,0.07872340425531915,0.05851063829787234
2535.3535353535353,0.12340425531914893,0.09787234042553192,0.02021276595744681
2545.4545454545455,0.1829787234042553,0.1074468085106383,-0.009574468085106383
2555.5555555555557,0.24680851063829787,0.09148936170212765,-0.005319148936170213
2565.6565656565654,0.33297872340425533,0.05638297872340425,0.030851063829787233
2575.757575757576,0.4074468085106383,0.023404255319148935,0.07021276595744681
2585.8585858585857,0.4648936170212766,0.007446808510638298,0.10212765957446808
2595.959595959596,0.4829787234042553,0.0010638297872340426,0.11595744680851064
2606.060606060606,0.46063829787234045,0,0.1148936170212766
2616.161616161616,0.3659574468085106,0.00425531914893617,0.0797872340425532
2626.2626262626263,0.19148936170212766,0.026595744680851064,0.02127659574468085
2636.3636363636365,-0.02872340425531915,0.06914893617021277,-0.015957446808510637
2646.4646464646466,-0.26170212765957446,0.08191489361702127,-0.02021276595744681
2656.5656565656564,-0.3829787234042553,0.09361702127659574,0.006382978723404255
2666.6666666666665,-0.4127659574468085,0.11808510638297873,0.04680851063829787
2676.7676767676767,-0.4106382978723404,0.16489361702127658,0.09574468085106383
2686.868686868687,-0.3468085106382979,0.24148936170212765,0.13829787234042554
2696.969696969697,-0.2691489361702128,0.3180851063829787,0.16702127659574467
2707.070707070707,-0.24148936170212765,0.37127659574468086,0.18617021276595744
2717.1717171717173,-0.2904255319148936,0.4095744680851064,0.15531914893617021
2727.272727272727,-0.42872340425531913,0.4329787234042553,0.07553191489361702
2737.373737373737,-0.5925531914893617,0.44148936170212766,0.035106382978723406
2747.4747474747473,-0.6670212765957447,0.41914893617021276,0.07021276595744681
2757.5757575757575,-0.7510638297872341,0.35319148936170214,0.17872340425531916
2767.6767676767677,-0.7170212765957447,0.28404255319148936,0.26382978723404255
2777.777777777778,-0.4648936170212766,0.2776595744680851,0.2531914893617021
2787.878787878788,-0.007446808510638298,0.31382978723404253,0.09787234042553192
2797.9797979797977,0.18617021276595744,0.35212765957446807,-0.0627659574468085
2808.0808080808083,0.05851063829787234,0.35106382978723405,-0.18936170212765957
2818.181818181818,-0.08191489361702127,0.34893617021276596,-0.2936170212765957
2828.282828282828,0.1,0.3872340425531915,-0.39893617021276595
2838.3838383838383,0.24893617021276596,0.41914893617021276,-0.40106382978723404
2848.4848484848485,0.16382978723404254,0.4117021276595745,-0.2648936170212766
2858.5858585858587,-0.14361702127659576,0.36914893617021277,-0.03723404255319149
2868.6868686868684,-0.5914893617021276,0.28829787234042553,0.2074468085106383
2878.787878787879,-0.8372340425531914,0.2148936170212766,0.35319148936170214
2888.8888888888887,-0.7393617021276596,0.16382978723404254,0.3861702127659574
2898.989898989899,-0.35,0.11382978723404255,0.3425531914893617
2909.090909090909,-0.007446808510638298,0.05425531914893617,0.28191489361702127
2919.191919191919,0.10212765957446808,-0.019148936170212766,0.25851063829787235
2929.2929292929293,0.05106382978723404,-0.08723404255319149,0.2521276595744681
2939.3939393939395,-0.019148936170212766,-0.11808510638297873,0.2851063829787234
2949.4949494949497,-0.10531914893617021,-0.13936170212765958,0.3170212765957447
2959.5959595959594,-0.2691489361702128,-0.13936170212765958,0.2968085106382979
2969.6969696969695,-0.4297872340425532,-0.11595744680851064,0.1702127659574468
2979.7979797979797,-0.5276595744680851,-0.0925531914893617,-0.02127659574468085
2989.89898989899,-0.46702127659574466,-0.10957446808510639,-0.21595744680851064
3000,-0.24680851063829787,-0.1925531914893617,-0.3606382978723404
3010,0.022340425531914895,-0.3414893617021277,-0.41808510638297874
3020,0.25638297872340426,-0.5212765957446809,-0.40106382978723404
3030,0.4734042553191489,-0.6691489361702128,-0.33617021276595743
3040,0.7617021276595745,-0.7648936170212766,-0.2542553191489362
3050,0.9851063829787234,-0.8457446808510638,-0.16808510638297872
3060,1.1329787234042554,-0.9308510638297872,-0.07765957446808511
3070,1.2106382978723405,-1.0276595744680852,0.00851063829787234
3080,1.2297872340425533,-1.1085106382978724,0.07765957446808511
3090,1.1691489361702128,-1.1436170212765957,0.11170212765957446
3100,1.0170212765957447,-1.1085106382978724,0.10106382978723404
3110,0.7468085106382979,-1.0170212765957447,0.043617021276595745
3120,0.43617021276595747,-0.9010638297872341,-0.047872340425531915
3130,0.18829787234042553,-0.7702127659574468,-0.14574468085106382
3140,0.03297872340425532,-0.676595744680851,-0.21595744680851064
3150,-0.05106382978723404,-0.5957446808510638,-0.23404255319148937
3160,-0.05638297872340425,-0.5202127659574468,-0.2276595744680851
3170,-0.04042553191489362,-0.4521276595744681,-0.19361702127659575
3180,-0.031914893617021274,-0.3819148936170213,-0.14468085106382977
3190,-0.06382978723404255,-0.34574468085106386,-0.10212765957446808
3200,-0.08617021276595745,-0.3180851063829787,-0.0574468085106383
3210,-0.08936170212765958,-0.30425531914893617,-0.01702127659574468
3220,-0.08404255319148936,-0.3127659574468085,0.023404255319148935
3230,-0.08404255319148936,-0.3404255319148936,0.08085106382978724
3240,-0.07553191489361702,-0.3882978723404255,0.12340425531914893
3250,-0.06489361702127659,-0.42872340425531913,0.11808510638297873
3260,-0.09148936170212765,-0.46170212765957447,0.09468085106382979
3270,-0.12340425531914893,-0.5010638297872341,0.05106382978723404
3280,-0.12872340425531914,-0.5287234042553192,0.010638297872340425
3290,-0.1372340425531915,-0.5382978723404256,-0.014893617021276596
3300,-0.1425531914893617,-0.5180851063829788,-0.047872340425531915
3310,-0.10106382978723404,-0.4765957446808511,-0.047872340425531915
3320,-0.015957446808510637,-0.44468085106382976,0.011702127659574468
3330,0.019148936170212766,-0.4351063829787234,0.1148936170212766
3340,0.0627659574468085,-0.4297872340425532,0.2053191489361702
3350,0.06808510638297872,-0.4297872340425532,0.2478723404255319
3360,0.0627659574468085,-0.41382978723404257,0.2404255319148936
3370,0.08191489361702127,-0.39787234042553193,0.19680851063829788
3380,0.10319148936170212,-0.39893617021276595,0.1372340425531915
3390,0.13297872340425532,-0.40106382978723404,0.05
3400,0.16063829787234044,-0.3904255319148936,-0.036170212765957444
3410,0.22021276595744682,-0.3670212765957447,-0.1148936170212766
3420,0.32340425531914896,-0.32659574468085106,-0.1702127659574468
3430,0.41702127659574467,-0.2797872340425532,-0.1851063829787234
3440,0.4765957446808511,-0.25,-0.16489361702127658
3450,0.4978723404255319,-0.24148936170212765,-0.1276595744680851
3460,0.5404255319148936,-0.25957446808510637,-0.09148936170212765
3470,0.5074468085106383,-0.3148936170212766,-0.03404255319148936
3480,0.4117021276595745,-0.4074468085106383,0.022340425531914895
3490,0.24893617021276596,-0.5223404255319148,0.05851063829787234
3500,0.1,-0.648936170212766,0.0851063829787234
3510,-0.031914893617021274,-0.7702127659574468,0.10106382978723404
3520,-0.1425531914893617,-0.8680851063829788,0.10319148936170212
3530,-0.20106382978723406,-0.9138297872340425,0.08404255319148936
3540,-0.21595744680851064,-0.9042553191489362,0.03297872340425532
3550,-0.22340425531914893,-0.8553191489361702,-0.04042553191489362
3560,-0.20957446808510638,-0.7968085106382978,-0.09468085106382979
3570,-0.1829787234042553,-0.7382978723404255,-0.08191489361702127
3580,-0.17553191489361702,-0.6840425531914893,-0.02021276595744681
3590,-0.16276595744680852,-0.6138297872340426,0.0425531914893617
3600,-0.1351063829787234,-0.526595744680851,0.09148936170212765
3610,-0.11382978723404255,-0.4297872340425532,0.10957446808510639
3620,-0.1372340425531915,-0.3382978723404255,0.10638297872340426
3630,-0.19893617021276597,-0.2574468085106383,0.11170212765957446
3640,-0.25,-0.1797872340425532,0.10212765957446808
3650,-0.2297872340425532,-0.10106382978723404,0.04893617021276596
3660,-0.21595744680851064,-0.039361702127659576,-0.03829787234042553
3670,-0.1595744680851064,-0.0031914893617021275,-0.12872340425531914
3680,-0.12127659574468085,0.0010638297872340426,-0.18617021276595744
3690,-0.08085106382978724,0.022340425531914895,-0.21382978723404256
3700,-0.0010638297872340426,0.07446808510638298,-0.22021276595744682
3710,0.08617021276595745,0.14680851063829786,-0.21170212765957447
3720,0.16063829787234044,0.2170212765957447,-0.1946808510638298
3730,0.19361702127659575,0.26170212765957446,-0.1797872340425532
3740,0.18085106382978725,0.2723404255319149,-0.17340425531914894
3750,0.1202127659574468,0.2680851063829787,-0.1851063829787234
3760,0.047872340425531915,0.2531914893617021,-0.24680851063829787
3770,0.006382978723404255,0.26170212765957446,-0.3382978723404255
3780,0.005319148936170213,0.28617021276595744,-0.43617021276595747
3790,0.05531914893617021,0.30531914893617024,-0.46808510638297873
3800,0.14148936170212767,0.3,-0.41702127659574467
3810,0.22659574468085106,0.25851063829787235,-0.3180851063829787
3820,0.2776595744680851,0.21382978723404256,-0.2
3830,0.2712765957446808,0.1851063829787234,-0.10957446808510639
3840,0.23297872340425532,0.17446808510638298,-0.0574468085106383
3850,0.1723404255319149,0.17446808510638298,-0.05638297872340425
3860,0.11170212765957446,0.20212765957446807,-0.08297872340425531
3870,0.07872340425531915,0.23829787234042554,-0.1372340425531915
3880,0.05638297872340425,0.2734042553191489,-0.17872340425531916
3890,0.043617021276595745,0.28936170212765955,-0.19042553191489361
3900,0.04893617021276596,0.29148936170212764,-0.15851063829787235
3910,0.043617021276595745,0.2765957446808511,-0.12446808510638298
3920,0.02553191489361702,0.24893617021276596,-0.08617021276595745
3930,-0.027659574468085105,0.2074468085106383,-0.036170212765957444
3940,-0.12127659574468085,0.17872340425531916,0.015957446808510637
3950,-0.20319148936170212,0.18829787234042553,0.06063829787234042
3960,-0.26382978723404255,0.2393617021276596,0.08085106382978724
3970,-0.28191489361702127,0.3191489361702128,0.07872340425531915
3980,-0.2553191489361702,0.4074468085106383,0.05851063829787234
3990,-0.25,0.4829787234042553,0.026595744680851064
4000,-0.28085106382978725,0.5382978723404256,0.005319148936170213
4010.10101010101,-0.3553191489361702,0.5776595744680851,-0.010638297872340425
4020.2020202020203,-0.42340425531914894,0.6308510638297873,-0.02021276595744681
4030.3030303030305,-0.4595744680851064,0.6840425531914893,-0.010638297872340425
4040.40404040404,-0.4521276595744681,0.725531914893617,0.005319148936170213
4050.5050505050503,-0.39148936170212767,0.7425531914893617,0.01702127659574468
4060.6060606060605,-0.30106382978723406,0.7180851063829787,0.029787234042553193
4070.7070707070707,-0.2531914893617021,0.6574468085106383,0.05
4080.808080808081,-0.23829787234042554,0.5957446808510638,0.03723404255319149
4090.909090909091,-0.2053191489361702,0.5553191489361702,0.005319148936170213
4101.010101010101,-0.1276595744680851,0.5340425531914894,-0.023404255319148935
4111.111111111111,-0.03297872340425532,0.5457446808510639,-0.031914893617021274
4121.212121212121,0.07127659574468086,0.5829787234042553,-0.026595744680851064
4131.313131313132,0.15638297872340426,0.6457446808510638,-0.018085106382978722
4141.414141414141,0.19680851063829788,0.723404255319149,-0.018085106382978722
4151.515151515152,0.1574468085106383,0.8053191489361702,-0.03829787234042553
4161.616161616162,0.022340425531914895,0.8670212765957447,-0.05425531914893617
4171.717171717171,-0.15851063829787235,0.875531914893617,-0.031914893617021274
4181.818181818182,-0.35,0.851063829787234,0.011702127659574468
4191.919191919192,-0.4808510638297872,0.8159574468085107,0.07021276595744681
4202.020202020202,-0.5234042553191489,0.7702127659574468,0.1148936170212766
4212.121212121212,-0.5010638297872341,0.7287234042553191,0.15106382978723404
4222.222222222223,-0.47127659574468084,0.6851063829787234,0.15851063829787235
4232.323232323232,-0.46702127659574466,0.6468085106382979,0.10638297872340426
4242.424242424242,-0.48617021276595745,0.6138297872340426,0.02446808510638298
4252.525252525253,-0.5085106382978724,0.5776595744680851,-0.05638297872340425
4262.626262626262,-0.524468085106383,0.5319148936170213,-0.11063829787234042
4272.727272727273,-0.5042553191489362,0.4797872340425532,-0.12446808510638298
4282.828282828283,-0.42872340425531913,0.4223404255319149,-0.10212765957446808
4292.929292929293,-0.2542553191489362,0.3638297872340426,-0.06808510638297872
4303.030303030303,-0.07234042553191489,0.32872340425531915,-0.0031914893617021275
4313.131313131313,0.04893617021276596,0.31170212765957445,0.05319148936170213
4323.232323232323,0.07446808510638298,0.3170212765957447,0.08829787234042553
4333.333333333333,0.0627659574468085,0.32872340425531915,0.07340425531914893
4343.434343434344,0.07340425531914893,0.3468085106382979,0.02553191489361702
4353.535353535353,0.08936170212765958,0.35,-0.045744680851063826
4363.636363636364,0.07340425531914893,0.35106382978723405,-0.1074468085106383
4373.737373737374,0.05,0.33617021276595743,-0.15
4383.838383838383,0.07553191489361702,0.2978723404255319,-0.14893617021276595
4393.939393939394,0.14361702127659576,0.21170212765957447,-0.09148936170212765
4404.040404040404,0.18085106382978725,0.09787234042553192,0.0031914893617021275
4414.141414141414,0.2148936170212766,0.013829787234042552,0.09361702127659574
4424.242424242424,0.251063829787234,-0.006382978723404255,0.12978723404255318
4434.343434343435,0.29148936170212764,0.05106382978723404,0.12659574468085105
4444.444444444444,0.2851063829787234,0.14468085106382977,0.11170212765957446
4454.545454545454,0.2404255319148936,0.2478723404255319,0.08617021276595745
4464.646464646465,0.15851063829787235,0.32127659574468087,0.04468085106382979
4474.747474747474,0.08617021276595745,0.3627659574468085,0.014893617021276596
4484.848484848485,0.07872340425531915,0.37127659574468086,0
4494.949494949495,0.13936170212765958,0.35212765957446807,0.013829787234042552
4505.050505050505,0.23297872340425532,0.29148936170212764,0.047872340425531915
4515.151515151515,0.31063829787234043,0.21063829787234042,0.09361702127659574
4525.252525252525,0.298936170212766,0.13617021276595745,0.12340425531914893
4535.353535353535,0.28829787234042553,0.09468085106382979,0.125531914893617
4545.454545454545,0.2276595744680851,0.0851063829787234,0.1074468085106383
4555.555555555556,0.1702127659574468,0.10212765957446808,0.07340425531914893
4565.656565656565,0.12234042553191489,0.14361702127659576,0.009574468085106383
4575.757575757576,0.11595744680851064,0.21382978723404256,-0.06595744680851064
4585.858585858586,0.16276595744680852,0.3,-0.13404255319148936
4595.959595959596,0.2148936170212766,0.37446808510638296,-0.16276595744680852
4606.060606060606,0.2372340425531915,0.4117021276595745,-0.14893617021276595
4616.161616161617,0.25957446808510637,0.41382978723404257,-0.1074468085106383
4626.262626262626,0.2765957446808511,0.38085106382978723,-0.05851063829787234
4636.363636363636,0.298936170212766,0.33297872340425533,0.00851063829787234
4646.464646464647,0.30106382978723406,0.25638297872340426,0.10106382978723404
4656.565656565656,0.2574468085106383,0.16276595744680852,0.21595744680851064
4666.666666666667,0.16595744680851063,0.07234042553191489,0.32553191489361705
4676.767676767677,0.06063829787234042,-0.005319148936170213,0.40638297872340423
4686.868686868687,-0.06063829787234042,-0.047872340425531915,0.44680851063829785
4696.969696969697,-0.19361702127659575,-0.06489361702127659,0.43617021276595747
4707.070707070707,-0.30106382978723406,-0.06382978723404255,0.4117021276595745
4717.171717171717,-0.35212765957446807,-0.06170212765957447,0.3648936170212766
4727.272727272727,-0.37446808510638296,-0.05531914893617021,0.3191489361702128
4737.373737373738,-0.37446808510638296,-0.052127659574468084,0.275531914893617
4747.474747474747,-0.3372340425531915,-0.04148936170212766,0.23297872340425532
4757.575757575758,-0.2925531914893617,-0.02127659574468085,0.19361702127659575
4767.676767676768,-0.2478723404255319,-0.0010638297872340426,0.15638297872340426
4777.777777777777,-0.1851063829787234,0.03297872340425532,0.1351063829787234
4787.878787878788,-0.07127659574468086,0.0797872340425532,0.13085106382978723
4797.979797979798,0.02446808510638298,0.10106382978723404,0.15638297872340426
4808.080808080808,0.05319148936170213,0.0851063829787234,0.2
4818.181818181818,-0.0010638297872340426,0.05425531914893617,0.251063829787234
4828.282828282829,-0.1074468085106383,0.009574468085106383,0.2904255319148936
4838.383838383838,-0.20319148936170212,-0.0425531914893617,0.3127659574468085
4848.484848484848,-0.2553191489361702,-0.09148936170212765,0.3180851063829787
4858.585858585859,-0.2734042553191489,-0.14148936170212767,0.3180851063829787
4868.686868686868,-0.26063829787234044,-0.1797872340425532,0.3074468085106383
4878.787878787879,-0.20106382978723406,-0.20212765957446807,0.2797872340425532
4888.888888888889,-0.12127659574468085,-0.2170212765957447,0.251063829787234
4898.989898989899,-0.002127659574468085,-0.23404255319148937,0.21170212765957447
4909.090909090909,0.1202127659574468,-0.2521276595744681,0.16595744680851063
4919.191919191919,0.22446808510638297,-0.26382978723404255,0.1127659574468085
4929.292929292929,0.2904255319148936,-0.275531914893617,0.06808510638297872
4939.393939393939,0.3180851063829787,-0.2925531914893617,0.026595744680851064
4949.49494949495,0.2946808510638298,-0.3170212765957447,-0.014893617021276596
4959.595959595959,0.24361702127659574,-0.3404255319148936,-0.059574468085106386
4969.69696969697,0.1829787234042553,-0.3648936170212766,-0.10212765957446808
4979.79797979798,0.1127659574468085,-0.3829787234042553,-0.12446808510638298
4989.898989898989,0.02446808510638298,-0.4053191489361702,-0.10851063829787234
5000,-0.0851063829787234,-0.4276595744680851,-0.04680851063829787
5010,-0.18404255319148935,-0.44574468085106383,0.02127659574468085
5020,-0.2425531914893617,-0.4531914893617021,0.05851063829787234
5030,-0.25638297872340426,-0.4372340425531915,0.029787234042553193
5040,-0.24468085106382978,-0.4074468085106383,-0.059574468085106386
5050,-0.15212765957446808,-0.3595744680851064,-0.2053191489361702
5060,-0.005319148936170213,-0.3021276595744681,-0.35425531914893615
5070,0.18723404255319148,-0.25851063829787235,-0.44361702127659575
5080,0.31063829787234043,-0.25638297872340426,-0.41914893617021276
5090,0.37872340425531914,-0.29148936170212764,-0.31063829787234043
5100,0.4095744680851064,-0.35,-0.16276595744680852
5110,0.37553191489361704,-0.4085106382978723,-0.007446808510638298
5120,0.30319148936170215,-0.4478723404255319,0.0851063829787234
5130,0.21382978723404256,-0.43829787234042555,0.09574468085106383
5140,0.15425531914893617,-0.4117021276595745,0.036170212765957444
5150,0.08936170212765958,-0.3617021276595745,-0.045744680851063826
5160,0.022340425531914895,-0.3127659574468085,-0.11170212765957446
5170,-0.03723404255319149,-0.298936170212766,-0.1351063829787234
5180,-0.05531914893617021,-0.30425531914893617,-0.11063829787234042
5190,-0.045744680851063826,-0.31063829787234043,-0.08936170212765958
5200,-0.0627659574468085,-0.298936170212766,-0.0797872340425532
5210,-0.05425531914893617,-0.25957446808510637,-0.07659574468085106
5220,-0.026595744680851064,-0.19787234042553192,-0.07659574468085106
5230,-0.011702127659574468,-0.12659574468085105,-0.06489361702127659
5240,-0.029787234042553193,-0.0925531914893617,-0.039361702127659576
5250,-0.06170212765957447,-0.10106382978723404,-0.00851063829787234
5260,-0.06382978723404255,-0.14893617021276595,0.031914893617021274
5270,-0.04468085106382979,-0.2170212765957447,0.06489361702127659
5280,-0.00425531914893617,-0.2851063829787234,0.0851063829787234
5290,0.052127659574468084,-0.3191489361702128,0.07446808510638298
5300,0.08297872340425531,-0.3170212765957447,0.022340425531914895
5310,0.045744680851063826,-0.28404255319148936,-0.04042553191489362
5320,-0.022340425531914895,-0.25638297872340426,-0.09042553191489362
5330,-0.1372340425531915,-0.25957446808510637,-0.12659574468085105
5340,-0.20425531914893616,-0.2776595744680851,-0.1202127659574468
5350,-0.22446808510638297,-0.30531914893617024,-0.11170212765957446
5360,-0.19042553191489361,-0.2968085106382979,-0.1074468085106383
5370,-0.16170212765957448,-0.2691489361702128,-0.10638297872340426
5380,-0.16276595744680852,-0.225531914893617,-0.10425531914893617
5390,-0.1925531914893617,-0.17127659574468085,-0.10957446808510639
5400,-0.2127659574468085,-0.12340425531914893,-0.10957446808510639
5410,-0.23617021276595745,-0.07234042553191489,-0.11382978723404255
5420,-0.2776595744680851,-0.03829787234042553,-0.11382978723404255
5430,-0.28404255319148936,-0.009574468085106383,-0.1
5440,-0.2574468085106383,0.002127659574468085,-0.07872340425531915
5450,-0.21382978723404256,0.015957446808510637,-0.04893617021276596
5460,-0.19042553191489361,0.02872340425531915,-0.04148936170212766
5470,-0.16489361702127658,0.03829787234042553,-0.04468085106382979
5480,-0.125531914893617,0.036170212765957444,-0.06063829787234042
5490,-0.09680851063829787,0.014893617021276596,-0.0925531914893617
5500,-0.06914893617021277,-0.005319148936170213,-0.11808510638297873
5510,-0.07446808510638298,-0.03297872340425532,-0.125531914893617
5520,-0.05531914893617021,-0.06808510638297872,-0.12872340425531914
5530,0.04042553191489362,-0.10425531914893617,-0.13404255319148936
5540,0.2053191489361702,-0.13297872340425532,-0.13297872340425532
5550,0.3425531914893617,-0.15851063829787235,-0.10212765957446808
5560,0.3425531914893617,-0.17872340425531916,-0.03829787234042553
5570,0.2872340425531915,-0.1829787234042553,0.036170212765957444
5580,0.26063829787234044,-0.18829787234042553,0.07765957446808511
5590,0.2351063829787234,-0.17659574468085107,0.0925531914893617
5600,0.2393617021276596,-0.16063829787234044,0.07234042553191489
5610,0.2776595744680851,-0.1372340425531915,0.05425531914893617
5620,0.42872340425531913,-0.12127659574468085,0.035106382978723406
5630,0.5670212765957446,-0.10319148936170212,-0.031914893617021274
5640,0.6617021276595745,-0.07234042553191489,-0.15425531914893617
5650,0.6351063829787233,-0.01702127659574468,-0.29148936170212764
5660,0.5085106382978724,0.04893617021276596,-0.4031914893617021
5670,0.4,0.11595744680851064,-0.4531914893617021
5680,0.3648936170212766,0.14680851063829786,-0.44574468085106383
5690,0.3872340425531915,0.1372340425531915,-0.39680851063829786
5700,0.40425531914893614,0.08936170212765958,-0.31382978723404253
5710,0.37553191489361704,0.011702127659574468,-0.2351063829787234
5720,0.2734042553191489,-0.08085106382978724,-0.1925531914893617
5730,0.16489361702127658,-0.1829787234042553,-0.14574468085106382
5740,0.043617021276595745,-0.30319148936170215,-0.10212765957446808
5750,-0.04893617021276596,-0.4351063829787234,-0.05638297872340425
5760,-0.14148936170212767,-0.6106382978723405,-0.047872340425531915
5770,-0.21595744680851064,-0.8404255319148937,-0.10319148936170212
5780,-0.2148936170212766,-1.1170212765957446,-0.1478723404255319
5790,-0.18085106382978725,-1.422340425531915,-0.20319148936170212
5800,-0.12127659574468085,-1.6914893617021276,-0.22659574468085106
5810,-0.10851063829787234,-1.8936170212765957,-0.2372340425531915
5820,-0.1074468085106383,-2.0138297872340427,-0.23829787234042554
5830,-0.15212765957446808,-2.072340425531915,-0.22234042553191488
5840,-0.21914893617021278,-2.0797872340425534,-0.16170212765957448
5850,-0.2723404255319149,-2.0404255319148934,-0.06382978723404255
5860,-0.33297872340425533,-1.952127659574468,0.047872340425531915
5870,-0.39680851063829786,-1.828723404255319,0.12340425531914893
5880,-0.4053191489361702,-1.6946808510638298,0.1946808510638298
5890,-0.37553191489361704,-1.5861702127659574,0.2946808510638298
5900,-0.3393617021276596,-1.4840425531914894,0.3776595744680851
5910,-0.275531914893617,-1.35,0.4351063829787234
5920,-0.22234042553191488,-1.196808510638298,0.4627659574468085
5930,-0.1723404255319149,-1.0404255319148936,0.44148936170212766
5940,-0.14680851063829786,-0.8861702127659574,0.3776595744680851
5950,-0.12234042553191489,-0.7670212765957447,0.28936170212765955
5960,-0.09042553191489362,-0.7095744680851064,0.20425531914893616
5970,-0.036170212765957444,-0.7085106382978723,0.1702127659574468
5980,0.027659574468085105,-0.7297872340425532,0.15
5990,0.12872340425531914,-0.7212765957446808,0.12978723404255318
6000,0.2425531914893617,-0.6819148936170213,0.08617021276595745
6010.10101010101,0.3223404255319149,-0.6,0.00851063829787234
6020.20202020202,0.34361702127659577,-0.5106382978723404,-0.05851063829787234
6030.30303030303,0.28404255319148936,-0.4329787234042553,-0.09361702127659574
6040.404040404041,0.25638297872340426,-0.35,-0.1148936170212766
6050.50505050505,0.32127659574468087,-0.251063829787234,-0.15106382978723404
6060.606060606061,0.42446808510638295,-0.16063829787234044,-0.17446808510638298
6070.707070707071,0.46595744680851064,-0.09574468085106383,-0.17872340425531916
6080.80808080808,0.474468085106383,-0.05106382978723404,-0.1946808510638298
6090.909090909091,0.5648936170212766,-0.02872340425531915,-0.23617021276595745
6101.010101010101,0.7510638297872341,-0.04042553191489362,-0.24148936170212765
6111.111111111111,0.9297872340425531,-0.07234042553191489,-0.225531914893617
6121.212121212121,1.0351063829787235,-0.07765957446808511,-0.20425531914893616
6131.313131313132,1.0861702127659574,-0.018085106382978722,-0.16914893617021276
6141.414141414141,1.0882978723404255,0.09468085106382979,-0.10319148936170212
6151.515151515152,0.9372340425531915,0.2297872340425532,-0.018085106382978722
6161.616161616162,0.65,0.4021276595744681,0.047872340425531915
6171.717171717171,0.32659574468085106,0.6223404255319149,0.0574468085106383
6181.818181818182,0.05851063829787234,0.85,0.02553191489361702
6191.919191919192,-0.04468085106382979,1.0702127659574467,-0.014893617021276596
6202.020202020202,-0.035106382978723406,1.2691489361702128,-0.06808510638297872
6212.121212121212,0.02446808510638298,1.4542553191489362,-0.10957446808510639
6222.222222222223,0.010638297872340425,1.603191489361702,-0.1
6232.323232323232,-0.14468085106382977,1.6627659574468086,-0.02553191489361702
6242.424242424242,-0.33085106382978724,1.6393617021276596,0.10851063829787234
6252.525252525253,-0.48829787234042554,1.5425531914893618,0.26595744680851063
6262.626262626262,-0.6436170212765957,1.401063829787234,0.3904255319148936
6272.727272727273,-0.7659574468085106,1.274468085106383,0.44680851063829785
6282.828282828283,-0.8340425531914893,1.1904255319148935,0.42872340425531913
6292.929292929293,-0.801063829787234,1.1351063829787233,0.3797872340425532
6303.030303030303,-0.6936170212765957,1.0808510638297872,0.3425531914893617
6313.131313131313,-0.5617021276595745,1.0404255319148936,0.33191489361702126
6323.232323232323,-0.47127659574468084,1.0351063829787235,0.3074468085106383
6333.333333333333,-0.3776595744680851,1.101063829787234,0.2797872340425532
6343.434343434344,-0.4,1.1882978723404256,0.2872340425531915
6353.535353535353,-0.5882978723404255,1.274468085106383,0.30957446808510636
6363.636363636364,-0.823404255319149,1.3542553191489362,0.3425531914893617
6373.737373737374,-0.9436170212765957,1.3882978723404256,0.37127659574468086
6383.838383838383,-0.9202127659574468,1.3542553191489362,0.37659574468085105
6393.939393939394,-0.7627659574468085,1.2595744680851064,0.3404255319148936
6404.040404040404,-0.4946808510638298,1.1329787234042554,0.23404255319148937
6414.141414141414,-0.2553191489361702,1,0.07127659574468086
6424.242424242424,-0.08829787234042553,0.8861702127659574,-0.07872340425531915
6434.343434343435,0,0.8180851063829787,-0.18404255319148935
6444.444444444444,0.05851063829787234,0.8031914893617021,-0.23191489361702128
6454.545454545454,0.08723404255319149,0.8063829787234043,-0.2404255319148936
6464.646464646465,0.08829787234042553,0.7936170212765957,-0.20212765957446807
6474.747474747474,0.0425531914893617,0.7531914893617021,-0.13829787234042554
6484.848484848485,-0.045744680851063826,0.6882978723404255,-0.06595744680851064
6494.949494949495,-0.1074468085106383,0.6063829787234043,-0.03404255319148936
6505.050505050505,-0.14468085106382977,0.5212765957446809,-0.02446808510638298
6515.151515151515,-0.1372340425531915,0.4095744680851064,-0.014893617021276596
6525.252525252525,-0.14042553191489363,0.2957446808510638,-0.005319148936170213
6535.353535353535,-0.08191489361702127,0.19680851063829788,0.031914893617021274
6545.454545454545,0.04148936170212766,0.11063829787234042,0.10531914893617021
6555.555555555556,0.16595744680851063,0.04468085106382979,0.17127659574468085
6565.656565656565,0.2276595744680851,0.013829787234042552,0.21382978723404256
6575.757575757576,0.16382978723404254,-0.01702127659574468,0.22872340425531915
6585.858585858586,0.05319148936170213,-0.029787234042553193,0.2723404255319149
6595.959595959596,-0.02021276595744681,-0.04148936170212766,0.32340425531914896
6606.060606060606,0.011702127659574468,-0.08085106382978724,0.36914893617021277
6616.161616161617,0.12234042553191489,-0.13191489361702127,0.35106382978723405
6626.262626262626,0.23617021276595745,-0.14893617021276595,0.24574468085106382
6636.363636363636,0.19361702127659575,-0.14574468085106382,0.13617021276595745
6646.464646464647,0.019148936170212766,-0.13404255319148936,0.08085106382978724
6656.565656565656,-0.22021276595744682,-0.12978723404255318,0.09574468085106383
6666.666666666667,-0.41808510638297874,-0.11702127659574468,0.13617021276595745
6676.767676767677,-0.4734042553191489,-0.043617021276595745,0.10106382978723404
6686.868686868687,-0.4723404255319149,0.0925531914893617,-0.006382978723404255
6696.969696969697,-0.32659574468085106,0.28085106382978725,-0.16808510638297872
6707.070707070707,-0.23085106382978723,0.46914893617021275,-0.31170212765957445
6717.171717171717,-0.15851063829787235,0.6170212765957447,-0.42340425531914894
6727.272727272727,-0.1723404255319149,0.6946808510638298,-0.4553191489361702
6737.373737373738,-0.3872340425531915,0.6797872340425531,-0.40638297872340423
6747.474747474747,-0.6308510638297873,0.6138297872340426,-0.2372340425531915
6757.575757575758,-0.6585106382978724,0.55,-0.09893617021276596
6767.676767676768,-0.5340425531914894,0.5606382978723404,-0.006382978723404255
6777.777777777777,-0.3382978723404255,0.6319148936170212,0.009574468085106383
6787.878787878788,-0.22021276595744682,0.7063829787234043,0
6797.979797979798,-0.1819148936170213,0.7276595744680852,0.013829787234042552
6808.080808080808,-0.24148936170212765,0.6585106382978724,0.08297872340425531
6818.181818181818,-0.3904255319148936,0.5010638297872341,0.17446808510638298
6828.282828282829,-0.5351063829787234,0.33297872340425533,0.22872340425531915
6838.383838383838,-0.5542553191489362,0.24148936170212765,0.20638297872340425
6848.484848484848,-0.45,0.2553191489361702,0.1425531914893617
6858.585858585859,-0.3404255319148936,0.30425531914893617,0.09042553191489362
6868.686868686868,-0.26276595744680853,0.35319148936170214,0.07234042553191489
6878.787878787879,-0.2691489361702128,0.34893617021276596,0.12234042553191489
6888.888888888889,-0.3159574468085106,0.27872340425531916,0.21170212765957447
6898.989898989899,-0.3882978723404255,0.18936170212765957,0.2425531914893617
6909.090909090909,-0.3468085106382979,0.14468085106382977,0.16170212765957448
6919.191919191919,-0.10319148936170212,0.15425531914893617,-0.018085106382978722
6929.292929292929,0.19148936170212766,0.2297872340425532,-0.23191489361702128
6939.393939393939,0.2734042553191489,0.30319148936170215,-0.32659574468085106
6949.49494949495,0.2542553191489362,0.33191489361702126,-0.2712765957446808
6959.595959595959,0.16595744680851063,0.32978723404255317,-0.15638297872340426
6969.69696969697,0.023404255319148935,0.28404255319148936,-0.045744680851063826
6979.79797979798,-0.19042553191489361,0.18617021276595744,0.01702127659574468
6989.898989898989,-0.3223404255319149,0.08085106382978724,0.02021276595744681
7000,-0.3202127659574468,-0.006382978723404255,-0.010638297872340425
7010,-0.16382978723404254,-0.05425531914893617,-0.08723404255319149
7020,0.08085106382978724,-0.05,-0.16489361702127658
7030,0.32127659574468087,-0.03297872340425532,-0.23617021276595745
7040,0.4297872340425532,-0.011702127659574468,-0.2425531914893617
7050,0.4531914893617021,-0.01276595744680851,-0.16382978723404254
7060,0.44574468085106383,-0.0627659574468085,-0.09787234042553192
7070,0.39893617021276595,-0.1074468085106383,-0.10425531914893617
7080,0.2648936170212766,-0.11914893617021277,-0.23404255319148937
7090,0.02127659574468085,-0.06063829787234042,-0.4117021276595745
7100,-0.26382978723404255,0.02553191489361702,-0.526595744680851
7110,-0.3382978723404255,0.10531914893617021,-0.4925531914893617
7120,-0.23191489361702128,0.09148936170212765,-0.35638297872340424
7130,-0.007446808510638298,0.0010638297872340426,-0.16489361702127658
7140,0.16489361702127658,-0.09042553191489362,-0.05106382978723404
7150,0.16595744680851063,-0.10319148936170212,-0.0797872340425532
7160,0.06382978723404255,-0.052127659574468084,-0.20638297872340425
7170,-0.1,0.023404255319148935,-0.35638297872340424
7180,-0.23191489361702128,0.09574468085106383,-0.44893617021276594
7190,-0.27872340425531916,0.1478723404255319,-0.4797872340425532
7200,-0.2670212765957447,0.19361702127659575,-0.43936170212765957
7210,-0.10319148936170212,0.22340425531914893,-0.33191489361702126
7220,0.19148936170212766,0.21170212765957447,-0.20212765957446807
7230,0.4627659574468085,0.15851063829787235,-0.07340425531914893
7240,0.451063829787234,0.05638297872340425,0.02872340425531915
7250,0.35212765957446807,-0.06808510638297872,0.10957446808510639
7260,0.13404255319148936,-0.19148936170212766,0.1127659574468085
7270,-0.02021276595744681,-0.2297872340425532,0.013829787234042552
7280,-0.06702127659574468,-0.17872340425531916,-0.13191489361702127
7290,-0.007446808510638298,-0.08085106382978724,-0.2574468085106383
7300,0.19574468085106383,0.018085106382978722,-0.28936170212765955
7310,0.4595744680851064,0.036170212765957444,-0.22872340425531915
7320,0.6563829787234042,-0.00425531914893617,-0.1127659574468085
7330,0.7776595744680851,-0.03829787234042553,-0.02127659574468085
7340,0.6585106382978724,-0.04468085106382979,-0.015957446808510637
7350,0.4521276595744681,0.018085106382978722,-0.04680851063829787
7360,0.21914893617021278,0.1127659574468085,-0.0925531914893617
7370,-0.007446808510638298,0.21382978723404256,-0.10106382978723404
7380,-0.20106382978723406,0.2734042553191489,-0.07127659574468086
7390,-0.3276595744680851,0.29148936170212764,-0.022340425531914895
7400,-0.4319148936170213,0.2680851063829787,0.006382978723404255
7410,-0.4734042553191489,0.2351063829787234,0.05638297872340425
7420,-0.4531914893617021,0.1819148936170213,0.07234042553191489
7430,-0.3446808510638298,0.14148936170212767,0.07553191489361702
7440,-0.2351063829787234,0.10638297872340426,0.047872340425531915
7450,-0.17872340425531916,0.09468085106382979,0.029787234042553193
7460,-0.1702127659574468,0.09574468085106383,0.010638297872340425
7470,-0.15319148936170213,0.1276595744680851,0.026595744680851064
7480,-0.1202127659574468,0.12978723404255318,0.08723404255319149
7490,-0.039361702127659576,0.09680851063829787,0.16808510638297872
7500,0.027659574468085105,0.0425531914893617,0.24361702127659574
7510,0.0925531914893617,-0.035106382978723406,0.2851063829787234
7520,0.19361702127659575,-0.10851063829787234,0.2851063829787234
7530,0.15106382978723404,-0.1829787234042553,0.2393617021276596
7540,0.05851063829787234,-0.21914893617021278,0.18617021276595744
7550,-0.05106382978723404,-0.20851063829787234,0.15638297872340426
7560,-0.09148936170212765,-0.16808510638297872,0.15106382978723404
7570,-0.0851063829787234,-0.10638297872340426,0.14361702127659576
7580,-0.15638297872340426,-0.05531914893617021,0.11382978723404255
7590,-0.19787234042553192,-0.010638297872340425,0.09680851063829787
7600,-0.07446808510638298,0.03723404255319149,0.06914893617021277
7610,0.09361702127659574,0.07765957446808511,0.002127659574468085
7620,0.28829787234042553,0.14042553191489363,-0.09787234042553192
7630,0.4117021276595745,0.20957446808510638,-0.21382978723404256
7640,0.42340425531914894,0.26382978723404255,-0.2574468085106383
7650,0.21063829787234042,0.26276595744680853,-0.14893617021276595
7660,-0.11063829787234042,0.20106382978723406,0.07659574468085106
7670,-0.34893617021276596,0.11595744680851064,0.2478723404255319
7680,-0.3872340425531915,0.043617021276595745,0.28936170212765955
7690,-0.2425531914893617,-0.027659574468085105,0.20851063829787234
7700,-0.04148936170212766,-0.11702127659574468,0.06595744680851064
7710,0.06595744680851064,-0.19574468085106383,-0.02553191489361702
7720,0.06489361702127659,-0.2531914893617021,-0.03404255319148936
7730,0.02021276595744681,-0.2851063829787234,0.013829787234042552
7740,-0.09787234042553192,-0.2872340425531915,0.04893617021276596
7750,-0.2702127659574468,-0.2531914893617021,0.036170212765957444
7760,-0.4021276595744681,-0.17553191489361702,-0.01702127659574468
7770,-0.4563829787234043,-0.0851063829787234,-0.06595744680851064
7780,-0.42446808510638295,-0.015957446808510637,-0.10531914893617021
7790,-0.28297872340425534,0.03723404255319149,-0.12659574468085105
7800,-0.035106382978723406,0.06914893617021277,-0.13617021276595745
7810,0.225531914893617,0.07659574468085106,-0.15212765957446808
7820,0.4223404255319149,0.06702127659574468,-0.19148936170212766
7830,0.5010638297872341,0.04680851063829787,-0.24361702127659574
7840,0.5127659574468085,0.019148936170212766,-0.28085106382978725
7850,0.46914893617021275,0.006382978723404255,-0.28936170212765955
7860,0.4053191489361702,0.011702127659574468,-0.2478723404255319
7870,0.2936170212765957,0.030851063829787233,-0.15851063829787235
7880,0.18404255319148935,0.0627659574468085,-0.03723404255319149
7890,0.13191489361702127,0.08085106382978724,0.09361702127659574
7900,0.21170212765957447,0.07659574468085106,0.23191489361702128
7910,0.3159574468085106,0.059574468085106386,0.3425531914893617
7920,0.33085106382978724,0.029787234042553193,0.425531914893617
7930,0.298936170212766,-0.00425531914893617,0.475531914893617
7940,0.20425531914893616,-0.03723404255319149,0.4851063829787234
7950,0.07659574468085106,-0.07446808510638298,0.44893617021276594
7960,-0.06702127659574468,-0.10638297872340426,0.3893617021276596
7970,-0.17127659574468085,-0.16489361702127658,0.32340425531914896
7980,-0.1925531914893617,-0.21170212765957447,0.2702127659574468
7990,-0.1851063829787234,-0.2425531914893617,0.21170212765957447
8000,-0.11170212765957446,-0.22872340425531915,0.16382978723404254
8010.10101010101,0.009574468085106383,-0.17872340425531916,0.10212765957446808
8020.20202020202,0.14468085106382977,-0.10425531914893617,0.013829787234042552
8030.30303030303,0.26063829787234044,-0.022340425531914895,-0.08617021276595745
8040.404040404041,0.32553191489361705,0.05638297872340425,-0.16489361702127658
8050.50505050505,0.35,0.0797872340425532,-0.17446808510638298
8060.606060606061,0.3574468085106383,0.030851063829787233,-0.10638297872340426
8070.707070707071,0.3797872340425532,-0.06595744680851064,0.023404255319148935
8080.80808080808,0.3202127659574468,-0.18085106382978725,0.14680851063829786
8090.909090909091,0.2574468085106383,-0.2170212765957447,0.225531914893617
8101.010101010101,0.17659574468085107,-0.17553191489361702,0.2478723404255319
8111.111111111111,0.0925531914893617,-0.08191489361702127,0.2712765957446808
8121.212121212121,-0.018085106382978722,0.00425531914893617,0.2872340425531915
8131.313131313132,-0.14893617021276595,0.06489361702127659,0.324468085106383
8141.414141414141,-0.2797872340425532,0.07659574468085106,0.37872340425531914
8151.515151515152,-0.40638297872340423,0.07340425531914893,0.4021276595744681
8161.616161616162,-0.43936170212765957,0.07765957446808511,0.40425531914893614
8171.717171717171,-0.3872340425531915,0.07553191489361702,0.35212765957446807
8181.818181818182,-0.37659574468085105,0.0627659574468085,0.26063829787234044
8191.919191919192,-0.35851063829787233,0.04148936170212766,0.17553191489361702
8202.020202020201,-0.2925531914893617,0.011702127659574468,0.12659574468085105
8212.121212121212,-0.20106382978723406,-0.006382978723404255,0.12659574468085105
8222.222222222223,-0.125531914893617,0.009574468085106383,0.11914893617021277
8232.323232323231,-0.1478723404255319,0.05106382978723404,0.09680851063829787
8242.424242424242,-0.2670212765957447,0.11595744680851064,0.07127659574468086
8252.525252525253,-0.46063829787234045,0.1829787234042553,0.05319148936170213
8262.626262626263,-0.6287234042553191,0.21063829787234042,0.0574468085106383
8272.727272727272,-0.6712765957446809,0.20212765957446807,0.04680851063829787
8282.828282828283,-0.5797872340425532,0.16170212765957448,0.009574468085106383
8292.929292929293,-0.41914893617021276,0.08617021276595745,-0.06382978723404255
8303.030303030304,-0.22872340425531915,0.03404255319148936,-0.1776595744680851
8313.131313131313,-0.08085106382978724,0.015957446808510637,-0.30957446808510636
8323.232323232323,0.01702127659574468,0.045744680851063826,-0.41702127659574467
8333.333333333334,0.09893617021276596,0.1276595744680851,-0.4946808510638298
8343.434343434343,0.20212765957446807,0.23829787234042554,-0.5340425531914894
8353.535353535353,0.3021276595744681,0.32553191489361705,-0.5287234042553192
8363.636363636364,0.39680851063829786,0.3648936170212766,-0.46808510638297873
8373.737373737375,0.4,0.3478723404255319,-0.34361702127659577
8383.838383838383,0.3680851063829787,0.2946808510638298,-0.21595744680851064
8393.939393939394,0.3372340425531915,0.22234042553191488,-0.11595744680851064
8404.040404040405,0.2851063829787234,0.1776595744680851,-0.11170212765957446
8414.141414141413,0.22234042553191488,0.19148936170212766,-0.18617021276595744
8424.242424242424,0.14042553191489363,0.25,-0.3170212765957447
8434.343434343435,0.08829787234042553,0.3148936170212766,-0.41808510638297874
8444.444444444445,0.07446808510638298,0.3276595744680851,-0.4223404255319149
8454.545454545454,0.1074468085106383,0.2872340425531915,-0.31063829787234043
8464.646464646465,0.14893617021276595,0.19574468085106383,-0.09148936170212765
8474.747474747475,0.23085106382978723,0.030851063829787233,0.1819148936170213
8484.848484848484,0.32659574468085106,-0.15319148936170213,0.4085106382978723
8494.949494949495,0.3553191489361702,-0.274468085106383,0.4968085106382979
8505.050505050505,0.3127659574468085,-0.32872340425531915,0.4340425531914894
8515.151515151516,0.2478723404255319,-0.3276595744680851,0.25851063829787235
8525.252525252525,0.18085106382978725,-0.3,-0.013829787234042552
8535.353535353535,0.21808510638297873,-0.24680851063829787,-0.2648936170212766
8545.454545454546,0.4074468085106383,-0.21382978723404256,-0.4074468085106383
8555.555555555555,0.6351063829787233,-0.18723404255319148,-0.4340425531914894
8565.656565656565,0.7968085106382978,-0.16170212765957448,-0.4
8575.757575757576,0.8170212765957446,-0.11914893617021277,-0.3351063829787234
8585.858585858587,0.8074468085106383,-0.06063829787234042,-0.26382978723404255
8595.959595959595,0.7808510638297872,0.0031914893617021275,-0.1829787234042553
8606.060606060606,0.7340425531914894,0.05319148936170213,-0.12872340425531914
8616.161616161617,0.6776595744680851,0.10531914893617021,-0.0851063829787234
8626.262626262625,0.5914893617021276,0.12978723404255318,-0.08723404255319149
8636.363636363636,0.48829787234042554,0.15851063829787235,-0.12978723404255318
8646.464646464647,0.38085106382978723,0.1797872340425532,-0.20212765957446807
8656.565656565657,0.28404255319148936,0.20638297872340425,-0.2648936170212766
8666.666666666666,0.2127659574468085,0.24468085106382978,-0.31170212765957445
8676.767676767677,0.16595744680851063,0.28829787234042553,-0.33085106382978724
8686.868686868687,0.13297872340425532,0.3159574468085106,-0.33404255319148934
8696.969696969696,0.13297872340425532,0.3180851063829787,-0.3
8707.070707070707,0.1425531914893617,0.26276595744680853,-0.2170212765957447
8717.171717171717,0.18829787234042553,0.1797872340425532,-0.12127659574468085
8727.272727272728,0.225531914893617,0.07446808510638298,-0.03829787234042553
8737.373737373737,0.22446808510638297,-0.009574468085106383,-0.00851063829787234
8747.474747474747,0.19361702127659575,-0.03297872340425532,-0.03723404255319149
8757.575757575758,0.1425531914893617,0.010638297872340425,-0.07659574468085106
8767.676767676767,0.09680851063829787,0.11170212765957446,-0.09042553191489362
8777.777777777777,0.02021276595744681,0.21914893617021278,-0.0851063829787234
8787.878787878788,-0.09361702127659574,0.30319148936170215,-0.05106382978723404
8797.979797979799,-0.2127659574468085,0.35425531914893615,0.00851063829787234
8808.080808080807,-0.28617021276595744,0.36914893617021277,0.05638297872340425
8818.181818181818,-0.35319148936170214,0.3595744680851064,0.09361702127659574
8828.282828282829,-0.39787234042553193,0.3223404255319149,0.1127659574468085
8838.383838383837,-0.4085106382978723,0.26276595744680853,0.11595744680851064
8848.484848484848,-0.42446808510638295,0.18829787234042553,0.11595744680851064
8858.585858585859,-0.40638297872340423,0.10531914893617021,0.12659574468085105
8868.68686868687,-0.3606382978723404,0.015957446808510637,0.16170212765957448
8878.787878787878,-0.28404255319148936,-0.06702127659574468,0.20212765957446807
8888.888888888889,-0.18085106382978725,-0.13297872340425532,0.21808510638297873
8898.9898989899,-0.10106382978723404,-0.15851063829787235,0.23404255319148937
8909.090909090908,-0.0797872340425532,-0.16595744680851063,0.22340425531914893
8919.191919191919,-0.11914893617021277,-0.16702127659574467,0.20319148936170212
8929.29292929293,-0.225531914893617,-0.16382978723404254,0.18936170212765957
8939.39393939394,-0.35851063829787233,-0.16276595744680852,0.1723404255319149
8949.494949494949,-0.44148936170212766,-0.17340425531914894,0.16808510638297872
8959.59595959596,-0.46170212765957447,-0.20106382978723406,0.17659574468085107
8969.69696969697,-0.4095744680851064,-0.2393617021276596,0.1925531914893617
8979.797979797979,-0.35106382978723405,-0.2680851063829787,0.19361702127659575
8989.89898989899,-0.30957446808510636,-0.28404255319148936,0.15425531914893617
9000,-0.2404255319148936,-0.28191489361702127,0.08404255319148936
9010,-0.13404255319148936,-0.2691489361702128,0.022340425531914895
9020,-0.03723404255319149,-0.2670212765957447,-0.022340425531914895
9030,0.0627659574468085,-0.26170212765957446,-0.052127659574468084
9040,0.18617021276595744,-0.24468085106382978,-0.07021276595744681
9050,0.25957446808510637,-0.21595744680851064,-0.04893617021276596
9060,0.2925531914893617,-0.1851063829787234,-0.0010638297872340426
9070,0.251063829787234,-0.15851063829787235,0.036170212765957444
9080,0.15212765957446808,-0.13936170212765958,0.05531914893617021
9090,-0.006382978723404255,-0.11808510638297873,0.052127659574468084
9100,-0.11595744680851064,-0.07340425531914893,0.018085106382978722
9110,-0.13191489361702127,-0.011702127659574468,-0.03297872340425532
9120,-0.09042553191489362,0.02872340425531915,-0.06382978723404255
9130,-0.043617021276595745,0.04042553191489362,-0.08297872340425531
9140,0.013829787234042552,0.05106382978723404,-0.07446808510638298
9150,0.06702127659574468,0.02872340425531915,-0.03404255319148936
9160,0.05425531914893617,-0.01276595744680851,0.059574468085106386
9170,-0.05851063829787234,-0.07765957446808511,0.16489361702127658
9180,-0.2,-0.12127659574468085,0.23191489361702128
9190,-0.2904255319148936,-0.11595744680851064,0.20319148936170212
9200,-0.30425531914893617,-0.08829787234042553,0.09787234042553192
9210,-0.24468085106382978,-0.06595744680851064,-0.006382978723404255
9220,-0.12234042553191489,-0.0627659574468085,-0.08829787234042553
9230,0.036170212765957444,-0.08404255319148936,-0.13085106382978723
9240,0.17659574468085107,-0.12127659574468085,-0.12872340425531914
9250,0.30638297872340425,-0.16702127659574467,-0.09468085106382979
9260,0.3648936170212766,-0.21914893617021278,-0.03723404255319149
9270,0.3670212765957447,-0.2670212765957447,0.010638297872340425
9280,0.3382978723404255,-0.2957446808510638,0.02127659574468085
9290,0.25957446808510637,-0.2904255319148936,-0.014893617021276596
9300,0.13404255319148936,-0.2531914893617021,-0.07872340425531915
9310,0.006382978723404255,-0.2053191489361702,-0.14042553191489363
9320,-0.08085106382978724,-0.16063829787234044,-0.16489361702127658
9330,-0.125531914893617,-0.13936170212765958,-0.13936170212765958
9340,-0.11914893617021277,-0.1425531914893617,-0.08723404255319149
9350,-0.12659574468085105,-0.15,-0.03829787234042553
9360,-0.16170212765957448,-0.15638297872340426,-0.0010638297872340426
9370,-0.18617021276595744,-0.15425531914893617,0.027659574468085105
9380,-0.20106382978723406,-0.15531914893617021,0.03829787234042553
9390,-0.1776595744680851,-0.15638297872340426,0.039361702127659576
9400,-0.11382978723404255,-0.15319148936170213,0.018085106382978722
9410,-0.04042553191489362,-0.14893617021276595,-0.036170212765957444
9420,0.04893617021276596,-0.13404255319148936,-0.10319148936170212
9430,0.15,-0.1,-0.13404255319148936
9440,0.225531914893617,-0.08404255319148936,-0.12340425531914893
9450,0.24680851063829787,-0.08617021276595745,-0.07127659574468086
9460,0.20425531914893616,-0.10851063829787234,-0.018085106382978722
9470,0.11914893617021277,-0.12234042553191489,0
9480,0.03829787234042553,-0.1074468085106383,-0.035106382978723406
9490,0.0010638297872340426,-0.06382978723404255,-0.0851063829787234
9500,0.013829787234042552,-0.00425531914893617,-0.11382978723404255
9510,0.018085106382978722,0.06489361702127659,-0.10425531914893617
9520,0.009574468085106383,0.12127659574468085,-0.0797872340425532
9530,0.01276595744680851,0.15425531914893617,-0.047872340425531915
9540,0.013829787234042552,0.17553191489361702,-0.0031914893617021275
9550,0.011702127659574468,0.17340425531914894,0.035106382978723406
9560,-0.0425531914893617,0.14680851063829786,0.07234042553191489
9570,-0.11382978723404255,0.10425531914893617,0.08191489361702127
9580,-0.21063829787234042,0.06595744680851064,0.06702127659574468
9590,-0.25957446808510637,0.043617021276595745,0.035106382978723406
9600,-0.251063829787234,0.0627659574468085,-0.013829787234042552
9610,-0.21063829787234042,0.0925531914893617,-0.08723404255319149
9620,-0.1276595744680851,0.12234042553191489,-0.17659574468085107
9630,0.09148936170212765,0.1595744680851064,-0.2648936170212766
9640,0.3414893617021277,0.17340425531914894,-0.3202127659574468
9650,0.5446808510638298,0.15851063829787235,-0.32340425531914896
9660,0.6351063829787233,0.1351063829787234,-0.2670212765957447
9670,0.6138297872340426,0.10531914893617021,-0.1829787234042553
9680,0.498936170212766,0.08617021276595745,-0.10638297872340426
9690,0.3446808510638298,0.08617021276595745,-0.06808510638297872
9700,0.17340425531914894,0.09148936170212765,-0.05106382978723404
9710,0.052127659574468084,0.10638297872340426,-0.031914893617021274
9720,-0.07021276595744681,0.09468085106382979,-0.0031914893617021275
9730,-0.1819148936170213,0.07234042553191489,0.02872340425531915
9740,-0.2723404255319149,0.045744680851063826,0.05851063829787234
9750,-0.32553191489361705,0.031914893617021274,0.06063829787234042
9760,-0.34361702127659577,0.045744680851063826,0.06382978723404255
9770,-0.34893617021276596,0.0797872340425532,0.045744680851063826
9780,-0.3393617021276596,0.1372340425531915,0.018085106382978722
9790,-0.34361702127659577,0.1925531914893617,-0.039361702127659576
9800,-0.3829787234042553,0.2276595744680851,-0.06914893617021277
9810,-0.4372340425531915,0.22340425531914893,-0.08723404255319149
9820,-0.45,0.19787234042553192,-0.08617021276595745
9830,-0.46808510638297873,0.15638297872340426,-0.0627659574468085
9840,-0.43617021276595747,0.10638297872340426,-0.036170212765957444
9850,-0.30638297872340425,0.06808510638297872,-0.013829787234042552
9860,-0.10212765957446808,0.04148936170212766,-0.018085106382978722
9870,0.09680851063829787,0.015957446808510637,-0.031914893617021274
9880,0.2702127659574468,0,-0.011702127659574468
9890,0.4074468085106383,-0.019148936170212766,0.029787234042553193
9900,0.48404255319148937,-0.03723404255319149,0.09893617021276596
9910,0.526595744680851,-0.05106382978723404,0.17659574468085107
9920,0.5042553191489362,-0.05531914893617021,0.2425531914893617
9930,0.4648936170212766,-0.06063829787234042,0.28404255319148936
9940,0.35106382978723405,-0.07234042553191489,0.2734042553191489
9950,0.26276595744680853,-0.05851063829787234,0.19042553191489361
9960,0.22340425531914893,-0.030851063829787233,0.031914893617021274
9970,0.22127659574468084,0.00851063829787234,-0.11170212765957446
9980,0.2734042553191489,0.029787234042553193,-0.1819148936170213
9990,0.33297872340425533,0.026595744680851064,-0.14148936170212767
10000,0.37446808510638296,0.00425531914893617,-0.02127659574468085
10010,0.2765957446808511,-0.02127659574468085,0.13191489361702127
10020,0.10531914893617021,-0.02446808510638298,0.23617021276595745
10030,-0.05851063829787234,0.029787234042553193,0.26276595744680853
10040,-0.23829787234042554,0.10851063829787234,0.22872340425531915
10050,-0.42021276595744683,0.19787234042553192,0.1425531914893617
10060,-0.5202127659574468,0.2872340425531915,0.02127659574468085
10070,-0.5521276595744681,0.33404255319148934,-0.11382978723404255
10080,-0.5361702127659574,0.35212765957446807,-0.21914893617021278
10090,-0.46595744680851064,0.33191489361702126,-0.2542553191489362
10100,-0.32978723404255317,0.2691489361702128,-0.22127659574468084
10110,-0.20851063829787234,0.1478723404255319,-0.13085106382978723
10120,-0.17446808510638298,0.02021276595744681,-0.04680851063829787
10130,-0.15212765957446808,-0.036170212765957444,-0.023404255319148935
10140,-0.11702127659574468,-0.035106382978723406,-0.05638297872340425
10150,-0.10212765957446808,0.0031914893617021275,-0.09361702127659574
10160,-0.08297872340425531,0.05319148936170213,-0.1148936170212766
10170,-0.0925531914893617,0.08723404255319149,-0.09787234042553192
10180,-0.0851063829787234,0.10531914893617021,-0.05531914893617021
10190,-0.11170212765957446,0.1127659574468085,-0.007446808510638298
10200,-0.16702127659574467,0.11702127659574468,0.015957446808510637
10210,-0.18085106382978725,0.12127659574468085,0.00851063829787234
10220,-0.1276595744680851,0.11170212765957446,-0.015957446808510637
10230,-0.007446808510638298,0.08297872340425531,-0.059574468085106386
10240,0.1276595744680851,0.04468085106382979,-0.09680851063829787
10250,0.2351063829787234,0.00425531914893617,-0.12234042553191489
10260,0.30319148936170215,-0.03723404255319149,-0.13617021276595745
10270,0.3382978723404255,-0.07765957446808511,-0.13085106382978723
10280,0.3372340425531915,-0.1127659574468085,-0.0925531914893617
10290,0.25851063829787235,-0.1595744680851064,-0.031914893617021274
10300,0.08297872340425531,-0.2053191489361702,0.015957446808510637
10310,-0.10425531914893617,-0.23829787234042554,0.039361702127659576
10320,-0.28404255319148936,-0.251063829787234,0.036170212765957444
10330,-0.3680851063829787,-0.24361702127659574,-0.018085106382978722
10340,-0.37872340425531914,-0.21595744680851064,-0.09787234042553192
10350,-0.30531914893617024,-0.17872340425531916,-0.16808510638297872
10360,-0.1829787234042553,-0.15851063829787235,-0.17872340425531916
10370,-0.08404255319148936,-0.14680851063829786,-0.13404255319148936
10380,-0.015957446808510637,-0.11808510638297873,-0.0574468085106383
10390,0.0425531914893617,-0.08723404255319149,0.02021276595744681
10400,0.06382978723404255,-0.07021276595744681,0.10212765957446808
10410,0.07446808510638298,-0.07659574468085106,0.18829787234042553
10420,0.06382978723404255,-0.11382978723404255,0.274468085106383
10430,0.02553191489361702,-0.17446808510638298,0.35319148936170214
10440,-0.07234042553191489,-0.2351063829787234,0.3946808510638298
10450,-0.19893617021276597,-0.28404255319148936,0.3882978723404255
10460,-0.3191489361702128,-0.3074468085106383,0.3276595744680851
10470,-0.3819148936170213,-0.30319148936170215,0.23617021276595745
10480,-0.36914893617021277,-0.2734042553191489,0.09148936170212765
10490,-0.29148936170212764,-0.22659574468085106,-0.08191489361702127
10500,-0.031914893617021274,-0.15851063829787235,-0.2680851063829787
10510,0.2574468085106383,-0.09680851063829787,-0.4074468085106383
10520,0.4276595744680851,-0.10212765957446808,-0.4117021276595745
10530,0.5904255319148937,-0.17553191489361702,-0.35425531914893615
10540,0.8053191489361702,-0.2734042553191489,-0.2925531914893617
10550,1.0925531914893618,-0.32872340425531915,-0.2574468085106383
10560,1.3297872340425532,-0.3638297872340426,-0.2276595744680851
10570,1.4138297872340426,-0.3680851063829787,-0.18404255319148935
10580,1.3446808510638297,-0.35638297872340424,-0.16489361702127658
10590,1.1872340425531915,-0.31170212765957445,-0.18617021276595744
10600,1.0457446808510638,-0.20851063829787234,-0.24680851063829787
10610,0.9680851063829787,-0.08297872340425531,-0.30425531914893617
10620,0.9446808510638298,-0.005319148936170213,-0.3170212765957447
10630,0.9468085106382979,0.02872340425531915,-0.2734042553191489
10640,0.9148936170212766,0.019148936170212766,-0.19042553191489361
10650,0.8117021276595745,-0.009574468085106383,-0.08191489361702127
10660,0.6776595744680851,-0.02872340425531915,0.035106382978723406
10670,0.5276595744680851,-0.035106382978723406,0.14468085106382977
10680,0.3595744680851064,-0.036170212765957444,0.2393617021276596
10690,0.20212765957446807,-0.06382978723404255,0.30638297872340425
10700,0.039361702127659576,-0.09148936170212765,0.36914893617021277
10710,-0.13404255319148936,-0.12234042553191489,0.3872340425531915
10720,-0.30851063829787234,-0.12127659574468085,0.3617021276595745
10730,-0.4563829787234043,-0.08191489361702127,0.3170212765957447
10740,-0.5436170212765957,-0.05106382978723404,0.28617021276595744
10750,-0.5670212765957446,-0.05638297872340425,0.2957446808510638
10760,-0.5787234042553191,-0.1074468085106383,0.3276595744680851
10770,-0.5925531914893617,-0.18085106382978725,0.32340425531914896
10780,-0.6117021276595744,-0.22872340425531915,0.26063829787234044
10790,-0.6106382978723405,-0.2404255319148936,0.16702127659574467
10800,-0.5457446808510639,-0.26170212765957446,0.07234042553191489
10810,-0.42340425531914894,-0.32978723404255317,0.03404255319148936
10820,-0.3872340425531915,-0.4297872340425532,0.05319148936170213
10830,-0.3893617021276596,-0.5255319148936171,0.09468085106382979
10840,-0.3819148936170213,-0.5914893617021276,0.05638297872340425
10850,-0.3606382978723404,-0.6021276595744681,-0.0925531914893617
10860,-0.35851063829787233,-0.6127659574468085,-0.25638297872340426
10870,-0.3148936170212766,-0.6670212765957447,-0.3680851063829787
10880,-0.23085106382978723,-0.7702127659574468,-0.42872340425531913
10890,-0.07127659574468086,-0.9063829787234042,-0.40106382978723404
10900,0.09574468085106383,-1.0723404255319149,-0.28085106382978725
10910,0.17446808510638298,-1.2680851063829788,-0.07021276595744681
10920,0.09042553191489362,-1.4617021276595745,0.16489361702127658
10930,-0.1,-1.602127659574468,0.3276595744680851
10940,-0.28085106382978725,-1.647872340425532,0.3680851063829787
10950,-0.3595744680851064,-1.6170212765957446,0.32659574468085106
10960,-0.298936170212766,-1.5446808510638297,0.251063829787234
10970,-0.22127659574468084,-1.452127659574468,0.14148936170212767
10980,-0.15851063829787235,-1.3446808510638297,0.013829787234042552
10990,-0.0574468085106383,-1.195744680851064,-0.15319148936170213
11000,0.026595744680851064,-1.025531914893617,-0.3393617021276596
11010.10101010101,0.02553191489361702,-0.8563829787234043,-0.4851063829787234
11020.20202020202,0.08085106382978724,-0.7021276595744681,-0.5989361702127659
11030.30303030303,0.3148936170212766,-0.597872340425532,-0.6553191489361702
11040.40404040404,0.6414893617021277,-0.5819148936170213,-0.6085106382978723
11050.505050505051,0.8765957446808511,-0.6329787234042553,-0.5085106382978724
11060.60606060606,1.025531914893617,-0.6819148936170213,-0.37872340425531914
11070.70707070707,1.078723404255319,-0.7457446808510638,-0.20425531914893616
11080.808080808081,1.0521276595744682,-0.774468085106383,0.002127659574468085
11090.90909090909,0.9170212765957447,-0.7404255319148936,0.15531914893617021
11101.0101010101,0.7446808510638298,-0.6234042553191489,0.22234042553191488
11111.111111111111,0.5351063829787234,-0.4723404255319149,0.21382978723404256
11121.212121212122,0.3638297872340426,-0.31063829787234043,0.15319148936170213
11131.31313131313,0.26063829787234044,-0.17659574468085107,0.09042553191489362
11141.414141414141,0.2393617021276596,-0.08829787234042553,0.0574468085106383
11151.515151515152,0.23297872340425532,-0.026595744680851064,0.015957446808510637
11161.61616161616,0.20212765957446807,0.05,-0.08936170212765958
11171.717171717171,0.19361702127659575,0.14574468085106382,-0.2425531914893617
11181.818181818182,0.1819148936170213,0.225531914893617,-0.34574468085106386
11191.919191919193,0.1351063829787234,0.25957446808510637,-0.37127659574468086
11202.020202020201,0.0925531914893617,0.23297872340425532,-0.30425531914893617
11212.121212121212,0.04893617021276596,0.1478723404255319,-0.20638297872340425
11222.222222222223,0.029787234042553193,0.05425531914893617,-0.14361702127659576
11232.323232323231,0.00851063829787234,-0.059574468085106386,-0.0925531914893617
11242.424242424242,-0.052127659574468084,-0.1797872340425532,-0.035106382978723406
11252.525252525253,-0.07872340425531915,-0.23617021276595745,-0.01702127659574468
11262.626262626263,-0.023404255319148935,-0.17553191489361702,-0.03829787234042553
11272.727272727272,0.10851063829787234,-0.014893617021276596,-0.08829787234042553
11282.828282828283,0.26276595744680853,0.23085106382978723,-0.15638297872340426
11292.929292929293,0.3478723404255319,0.5308510638297872,-0.20957446808510638
11303.030303030304,0.33404255319148934,0.8276595744680851,-0.22872340425531915
11313.131313131313,0.2351063829787234,1.1042553191489362,-0.19787234042553192
11323.232323232323,0.08829787234042553,1.3648936170212767,-0.1425531914893617
11333.333333333334,-0.08404255319148936,1.573404255319149,-0.09574468085106383
11343.434343434343,-0.26382978723404255,1.6978723404255318,-0.04148936170212766
11353.535353535353,-0.44148936170212766,1.724468085106383,0.009574468085106383
11363.636363636364,-0.5946808510638298,1.6553191489361703,0.08297872340425531
11373.737373737375,-0.6808510638297872,1.5170212765957447,0.17446808510638298
11383.838383838383,-0.698936170212766,1.3574468085106384,0.2872340425531915
11393.939393939394,-0.6606382978723404,1.2095744680851064,0.3946808510638298
11404.040404040405,-0.6148936170212767,1.0925531914893618,0.46595744680851064
11414.141414141413,-0.5851063829787234,1.0340425531914894,0.48723404255319147
11424.242424242424,-0.5329787234042553,1.0361702127659576,0.4521276595744681
11434.343434343435,-0.46063829787234045,1.0893617021276596,0.40106382978723404
11444.444444444445,-0.4117021276595745,1.1734042553191488,0.36914893617021277
11454.545454545454,-0.33404255319148934,1.2712765957446808,0.34574468085106386
11464.646464646465,-0.24574468085106382,1.377659574468085,0.3276595744680851
11474.747474747475,-0.20957446808510638,1.4936170212765958,0.2478723404255319
11484.848484848484,-0.2425531914893617,1.603191489361702,0.1127659574468085
11494.949494949495,-0.3021276595744681,1.6414893617021276,0.022340425531914895
11505.050505050505,-0.39361702127659576,1.5840425531914895,0.0031914893617021275
11515.151515151516,-0.4329787234042553,1.476595744680851,0.04468085106382979
11525.252525252525,-0.475531914893617,1.3457446808510638,0.14468085106382977
11535.353535353535,-0.4946808510638298,1.2191489361702128,0.2904255319148936
11545.454545454546,-0.5127659574468085,1.103191489361702,0.44574468085106383
11555.555555555555,-0.5361702127659574,0.9851063829787234,0.5648936170212766
11565.656565656565,-0.5436170212765957,0.8893617021276595,0.624468085106383
11575.757575757576,-0.575531914893617,0.8053191489361702,0.6053191489361702
11585.858585858587,-0.6627659574468086,0.7095744680851064,0.5393617021276595
11595.959595959595,-0.6914893617021277,0.6021276595744681,0.4
11606.060606060606,-0.6053191489361702,0.4819148936170213,0.2297872340425532
11616.161616161617,-0.5372340425531915,0.37659574468085105,0.08297872340425531
11626.262626262625,-0.42446808510638295,0.3159574468085106,-0.05
11636.363636363636,-0.2542553191489362,0.28297872340425534,-0.12446808510638298
11646.464646464647,-0.03829787234042553,0.23085106382978723,-0.1776595744680851
11656.565656565657,0.15,0.19148936170212766,-0.22021276595744682
11666.666666666666,0.26170212765957446,0.1148936170212766,-0.22659574468085106
11676.767676767677,0.32872340425531915,0.023404255319148935,-0.16914893617021276
11686.868686868687,0.32340425531914896,-0.06489361702127659,-0.12872340425531914
11696.969696969696,0.274468085106383,-0.07446808510638298,-0.08404255319148936
11707.070707070707,0.1819148936170213,-0.027659574468085105,-0.03829787234042553
11717.171717171717,0.06489361702127659,0.05319148936170213,0.006382978723404255
11727.272727272728,-0.0797872340425532,0.15106382978723404,0.0010638297872340426
11737.373737373737,-0.20851063829787234,0.2404255319148936,-0.039361702127659576
11747.474747474747,-0.24574468085106382,0.31063829787234043,-0.11702127659574468
11757.575757575758,-0.16914893617021276,0.3702127659574468,-0.2
11767.676767676767,-0.09361702127659574,0.39680851063829786,-0.26595744680851063
11777.777777777777,-0.04893617021276596,0.3819148936170213,-0.26276595744680853
11787.878787878788,-0.039361702127659576,0.324468085106383,-0.20425531914893616
11797.979797979799,-0.030851063829787233,0.25638297872340426,-0.15212765957446808
11808.080808080807,-0.006382978723404255,0.20851063829787234,-0.1372340425531915
11818.181818181818,0.030851063829787233,0.1776595744680851,-0.14468085106382977
11828.282828282829,0.07872340425531915,0.15851063829787235,-0.15319148936170213
11838.383838383837,0.16595744680851063,0.1574468085106383,-0.15638297872340426
11848.484848484848,0.2723404255319149,0.17553191489361702,-0.16808510638297872
11858.585858585859,0.3021276595744681,0.19680851063829788,-0.17553191489361702
11868.68686868687,0.28617021276595744,0.1851063829787234,-0.19361702127659575
11878.787878787878,0.20957446808510638,0.1478723404255319,-0.23829787234042554
11888.888888888889,0.08404255319148936,0.10851063829787234,-0.2946808510638298
11898.9898989899,-0.06595744680851064,0.09468085106382979,-0.3372340425531915
11909.090909090908,-0.15319148936170213,0.10638297872340426,-0.3159574468085106
11919.191919191919,-0.22021276595744682,0.13404255319148936,-0.23191489361702128
11929.29292929293,-0.2404255319148936,0.16276595744680852,-0.12446808510638298
11939.39393939394,-0.2553191489361702,0.1946808510638298,-0.05
11949.494949494949,-0.2691489361702128,0.22127659574468084,0.00851063829787234
11959.59595959596,-0.2797872340425532,0.2351063829787234,0.08297872340425531
11969.69696969697,-0.29148936170212764,0.22446808510638297,0.18936170212765957
11979.797979797979,-0.3351063829787234,0.1925531914893617,0.30851063829787234
11989.89898989899,-0.3840425531914894,0.14468085106382977,0.39574468085106385
12000,-0.4734042553191489,0.08829787234042553,0.43617021276595747
12010.10101010101,-0.5457446808510639,0.036170212765957444,0.4308510638297872
12020.20202020202,-0.65,0,0.37446808510638296
12030.30303030303,-0.7425531914893617,-0.039361702127659576,0.2925531914893617
12040.40404040404,-0.825531914893617,-0.07659574468085106,0.20425531914893616
12050.505050505051,-0.8595744680851064,-0.07446808510638298,0.1478723404255319
12060.60606060606,-0.8425531914893617,-0.045744680851063826,0.08191489361702127
12070.70707070707,-0.7340425531914894,0.006382978723404255,0.03723404255319149
12080.808080808081,-0.5840425531914893,0.07127659574468086,-0.00425531914893617
12090.90909090909,-0.4,0.12659574468085105,-0.07872340425531915
12101.0101010101,-0.16276595744680852,0.1595744680851064,-0.1574468085106383
12111.111111111111,0.039361702127659576,0.1425531914893617,-0.21808510638297873
12121.212121212122,0.23085106382978723,0.08617021276595745,-0.25638297872340426
12131.31313131313,0.48404255319148937,0.029787234042553193,-0.28085106382978725
12141.414141414141,0.7319148936170212,-0.02872340425531915,-0.30531914893617024
12151.515151515152,0.9085106382978724,-0.08191489361702127,-0.3021276595744681
12161.61616161616,0.9936170212765958,-0.125531914893617,-0.25638297872340426
12171.717171717171,0.9680851063829787,-0.16808510638297872,-0.17340425531914894
12181.818181818182,0.85,-0.19893617021276597,-0.07127659574468086
12191.919191919193,0.6404255319148936,-0.21382978723404256,0.0425531914893617
12202.020202020201,0.4351063829787234,-0.20957446808510638,0.13404255319148936
12212.121212121212,0.33617021276595743,-0.19680851063829788,0.17340425531914894
12222.222222222223,0.3127659574468085,-0.20425531914893616,0.1574468085106383
12232.323232323231,0.3638297872340426,-0.19893617021276597,0.10425531914893617
12242.424242424242,0.3723404255319149,-0.19042553191489361,0.045744680851063826
12252.525252525253,0.35319148936170214,-0.1851063829787234,0.00425531914893617
12262.626262626263,0.3393617021276596,-0.18404255319148935,0.00425531914893617
12272.727272727272,0.23404255319148937,-0.19680851063829788,0.04468085106382979
12282.828282828283,0.1148936170212766,-0.1851063829787234,0.09468085106382979
12292.929292929293,-0.02127659574468085,-0.16808510638297872,0.12446808510638298
12303.030303030304,-0.1595744680851064,-0.15,0.09042553191489362
12313.131313131313,-0.32553191489361705,-0.1148936170212766,-0.02021276595744681
12323.232323232323,-0.42340425531914894,-0.09574468085106383,-0.19042553191489361
12333.333333333334,-0.4031914893617021,-0.08085106382978724,-0.3851063829787234
12343.434343434343,-0.2478723404255319,-0.07446808510638298,-0.5276595744680851
12353.535353535353,0.029787234042553193,-0.07446808510638298,-0.573404255319149
12363.636363636364,0.2851063829787234,-0.059574468085106386,-0.4957446808510638
12373.737373737375,0.4148936170212766,-0.029787234042553193,-0.34893617021276596
12383.838383838383,0.4531914893617021,-0.009574468085106383,-0.13085106382978723
12393.939393939394,0.3606382978723404,-0.06914893617021277,0.09042553191489362
12404.040404040405,0.13085106382978723,-0.1829787234042553,0.2957446808510638
12414.141414141413,-0.15425531914893617,-0.32872340425531915,0.40106382978723404
12424.242424242424,-0.3819148936170213,-0.42340425531914894,0.39148936170212767
12434.343434343435,-0.49148936170212765,-0.44680851063829785,0.33297872340425533
12444.444444444445,-0.46808510638297873,-0.42340425531914894,0.251063829787234
12454.545454545454,-0.3680851063829787,-0.3702127659574468,0.18723404255319148
12464.646464646465,-0.25851063829787235,-0.3202127659574468,0.10851063829787234
12474.747474747475,-0.20106382978723406,-0.26595744680851063,0.045744680851063826
12484.848484848484,-0.1797872340425532,-0.23191489361702128,0.014893617021276596
12494.949494949495,-0.1478723404255319,-0.21808510638297873,0.0010638297872340426
12505.050505050505,-0.07659574468085106,-0.19680851063829788,-0.0010638297872340426
12515.151515151516,-0.005319148936170213,-0.1829787234042553,0
12525.252525252525,0.05319148936170213,-0.16702127659574467,0.007446808510638298
12535.353535353535,0.1202127659574468,-0.1478723404255319,0.02872340425531915
12545.454545454546,0.17340425531914894,-0.13085106382978723,0.007446808510638298
12555.555555555555,0.2574468085106383,-0.09574468085106383,-0.045744680851063826
12565.656565656565,0.3372340425531915,-0.07340425531914893,-0.11595744680851064
12575.757575757576,0.39787234042553193,-0.052127659574468084,-0.15106382978723404
12585.858585858587,0.4351063829787234,-0.06914893617021277,-0.16276595744680852
12595.959595959595,0.44574468085106383,-0.1074468085106383,-0.14042553191489363
12606.060606060606,0.4319148936170213,-0.14468085106382977,-0.1127659574468085
12616.161616161617,0.45,-0.16276595744680852,-0.10957446808510639
12626.262626262625,0.5,-0.16382978723404254,-0.10638297872340426
12636.363636363636,0.5117021276595745,-0.16063829787234044,-0.0851063829787234
12646.464646464647,0.46382978723404256,-0.15638297872340426,-0.04148936170212766
12656.565656565657,0.40106382978723404,-0.15319148936170213,-0.00425531914893617
12666.666666666666,0.37553191489361704,-0.14680851063829786,0.005319148936170213
12676.767676767677,0.3202127659574468,-0.1127659574468085,0.0010638297872340426
12686.868686868687,0.28936170212765955,-0.05,-0.04680851063829787
12696.969696969696,0.28936170212765955,0.039361702127659576,-0.10638297872340426
12707.070707070707,0.33617021276595743,0.16063829787234044,-0.16808510638297872
12717.171717171717,0.3819148936170213,0.2936170212765957,-0.2
12727.272727272728,0.32872340425531915,0.3925531914893617,-0.19574468085106383
12737.373737373737,0.1925531914893617,0.44680851063829785,-0.14680851063829786
12747.474747474747,0.09148936170212765,0.46063829787234045,-0.07553191489361702
12757.575757575758,-0.007446808510638298,0.425531914893617,-0.036170212765957444
12767.676767676767,-0.07765957446808511,0.38085106382978723,0.039361702127659576
12777.777777777777,-0.21808510638297873,0.30638297872340425,0.11382978723404255
12787.878787878788,-0.33617021276595743,0.2372340425531915,0.20638297872340425
12797.979797979799,-0.40425531914893614,0.18404255319148935,0.298936170212766
12808.080808080807,-0.4787234042553192,0.14680851063829786,0.3617021276595745
12818.181818181818,-0.5212765957446809,0.13617021276595745,0.39361702127659576
12828.282828282829,-0.5468085106382978,0.12446808510638298,0.3925531914893617
12838.383838383837,-0.5638297872340425,0.08936170212765958,0.34893617021276596
12848.484848484848,-0.5765957446808511,0.06382978723404255,0.3180851063829787
12858.585858585859,-0.6138297872340426,0.04042553191489362,0.2872340425531915
12868.68686868687,-0.6851063829787234,0.04042553191489362,0.26276595744680853
12878.787878787878,-0.7276595744680852,0.06382978723404255,0.2351063829787234
12888.888888888889,-0.7340425531914894,0.0851063829787234,0.21170212765957447
12898.9898989899,-0.6659574468085107,0.10212765957446808,0.20319148936170212
12909.090909090908,-0.6170212765957447,0.10212765957446808,0.225531914893617
12919.191919191919,-0.5074468085106383,0.09148936170212765,0.2478723404255319
12929.29292929293,-0.4765957446808511,0.07553191489361702,0.2723404255319149
12939.39393939394,-0.5478723404255319,0.06595744680851064,0.25
12949.494949494949,-0.5297872340425532,0.08085106382978724,0.14468085106382977
12959.59595959596,-0.4797872340425532,0.10638297872340426,0.00425531914893617
12969.69696969697,-0.5372340425531915,0.12234042553191489,-0.09680851063829787
12979.797979797979,-0.6159574468085106,0.125531914893617,-0.14574468085106382
12989.89898989899,-0.6457446808510638,0.1148936170212766,-0.12659574468085105
13000,-0.6063829787234043,0.10319148936170212,-0.09148936170212765
13010,-0.42659574468085104,0.11170212765957446,-0.1148936170212766
13020,-0.19042553191489361,0.16382978723404254,-0.1925531914893617
13030,0.00851063829787234,0.16489361702127658,-0.28936170212765955
13040,0.12659574468085105,0.10106382978723404,-0.31063829787234043
13050,0.21063829787234042,0.01702127659574468,-0.2776595744680851
13060,0.34361702127659577,-0.013829787234042552,-0.20638297872340425
13070,0.44042553191489364,0.029787234042553193,-0.1
13080,0.4319148936170213,0.12446808510638298,0.01702127659574468
13090,0.32553191489361705,0.2372340425531915,0.09680851063829787
13100,0.17446808510638298,0.35319148936170214,0.11382978723404255
13110,0.006382978723404255,0.4531914893617021,0.07872340425531915
13120,-0.1372340425531915,0.5148936170212766,0.02446808510638298
13130,-0.19148936170212766,0.4978723404255319,-0.007446808510638298
13140,-0.18404255319148935,0.40425531914893614,0.03404255319148936
13150,-0.1574468085106383,0.2531914893617021,0.11170212765957446
13160,-0.1595744680851064,0.0925531914893617,0.1851063829787234
13170,-0.11595744680851064,-0.04680851063829787,0.2393617021276596
13180,0.02872340425531915,-0.15638297872340426,0.2148936170212766
13190,0.16382978723404254,-0.22127659574468084,0.13936170212765958
13200,0.14468085106382977,-0.27872340425531916,0.06489361702127659
13210,0.011702127659574468,-0.324468085106383,0
13220,-0.09361702127659574,-0.324468085106383,-0.08085106382978724
13230,-0.006382978723404255,-0.2734042553191489,-0.15212765957446808
13240,0.1478723404255319,-0.225531914893617,-0.15212765957446808
13250,0.31382978723404253,-0.1946808510638298,-0.1202127659574468
13260,0.39148936170212767,-0.15212765957446808,-0.0925531914893617
13270,0.4734042553191489,-0.10106382978723404,-0.12340425531914893
13280,0.5638297872340425,-0.02446808510638298,-0.20319148936170212
13290,0.6063829787234043,0.03404255319148936,-0.3074468085106383
13300,0.6808510638297872,0.07234042553191489,-0.43829787234042555
13310,0.7702127659574468,0.08936170212765958,-0.5468085106382978
13320,0.8021276595744681,0.0797872340425532,-0.5989361702127659
13330,0.7446808510638298,0.06489361702127659,-0.6180851063829788
13340,0.7031914893617022,0.09042553191489362,-0.625531914893617
13350,0.8021276595744681,0.13404255319148936,-0.6670212765957447
13360,1.0680851063829788,0.16914893617021276,-0.7063829787234043
13370,1.2670212765957447,0.14893617021276595,-0.6787234042553192
13380,1.3468085106382979,0.10957446808510639,-0.5925531914893617
13390,1.3021276595744682,0.10319148936170212,-0.451063829787234
13400,1.1042553191489362,0.11808510638297873,-0.2946808510638298
13410,0.801063829787234,0.14042553191489363,-0.1574468085106383
13420,0.48829787234042554,0.16382978723404254,-0.04468085106382979
13430,0.2723404255319149,0.15106382978723404,0.027659574468085105
13440,0.13617021276595745,0.09893617021276596,0.07765957446808511
13450,0.08936170212765958,0.03829787234042553,0.10319148936170212
13460,0.0925531914893617,0,0.11382978723404255
13470,0.14468085106382977,-0.013829787234042552,0.09361702127659574
13480,0.15851063829787235,0.018085106382978722,0.059574468085106386
13490,0.13191489361702127,0.07765957446808511,0.029787234042553193
13500,0.05106382978723404,0.15,0.018085106382978722
13510,-0.09468085106382979,0.19361702127659575,0.0574468085106383
13520,-0.2968085106382979,0.19042553191489361,0.13404255319148936
13530,-0.5,0.1723404255319149,0.19893617021276597
13540,-0.7106382978723405,0.13191489361702127,0.23297872340425532
13550,-0.9287234042553192,0.10319148936170212,0.2765957446808511
13560,-1.0563829787234043,0.06808510638297872,0.3127659574468085
13570,-1.1457446808510638,0.06808510638297872,0.3638297872340426
13580,-1.1659574468085105,0.04680851063829787,0.3797872340425532
13590,-1.0393617021276595,0.023404255319148935,0.3851063829787234
13600,-0.9361702127659575,0.031914893617021274,0.3595744680851064
13610,-0.7851063829787234,0.04680851063829787,0.2765957446808511
13620,-0.5372340425531915,0.12446808510638298,0.15638297872340426
13630,-0.36914893617021277,0.15638297872340426,0.11382978723404255
13640,-0.2968085106382979,0.17659574468085107,0.1372340425531915
13650,-0.16489361702127658,0.2127659574468085,0.11808510638297873
13660,0.006382978723404255,0.2734042553191489,0.05
13670,0.1819148936170213,0.3148936170212766,-0.0851063829787234
13680,0.2404255319148936,0.3127659574468085,-0.17659574468085107
13690,0.2670212765957447,0.23297872340425532,-0.1851063829787234
13700,0.251063829787234,0.13191489361702127,-0.11702127659574468
13710,0.1723404255319149,0.039361702127659576,0.00851063829787234
13720,0.02446808510638298,-0.014893617021276596,0.18723404255319148
13730,-0.18085106382978725,-0.01702127659574468,0.3372340425531915
13740,-0.37872340425531914,0.02872340425531915,0.3861702127659574
13750,-0.48723404255319147,0.1,0.3223404255319149
13760,-0.5446808510638298,0.2,0.19680851063829788
13770,-0.5191489361702127,0.32127659574468087,0.07872340425531915
13780,-0.5585106382978723,0.41702127659574467,0.059574468085106386
13790,-0.6936170212765957,0.44468085106382976,0.06595744680851064
13800,-0.7659574468085106,0.5031914893617021,0.0627659574468085
13810,-0.9063829787234042,0.4829787234042553,0.07021276595744681
13820,-0.7404255319148936,0.4223404255319149,0.06808510638297872
13830,-0.3127659574468085,0.28191489361702127,0.0574468085106383
13840,0.13085106382978723,0.10319148936170212,0.059574468085106386
13850,0.4031914893617021,-0.06170212765957447,0.11063829787234042
13860,0.6074468085106383,-0.16382978723404254,0.16382978723404254
13870,0.7489361702127659,-0.2053191489361702,0.2127659574468085
13880,0.8031914893617021,-0.15531914893617021,0.24680851063829787
13890,0.6808510638297872,-0.05,0.2946808510638298
13900,0.42446808510638295,0.09361702127659574,0.40106382978723404
13910,0.11595744680851064,0.21595744680851064,0.5297872340425532
13920,-0.07446808510638298,0.2925531914893617,0.6468085106382979
13930,-0.15531914893617021,0.32340425531914896,0.7755319148936171
13940,-0.24574468085106382,0.2957446808510638,0.8776595744680851
13950,-0.28085106382978725,0.22127659574468084,0.9191489361702128
13960,-0.39893617021276595,0.13297872340425532,0.8414893617021276
13970,-0.5042553191489362,0.06595744680851064,0.6170212765957447
13980,-0.5170212765957447,0.02872340425531915,0.40106382978723404
13990,-0.5287234042553192,-0.09042553191489362,0.28191489361702127
14000,-0.5606382978723404,-0.21914893617021278,0.2297872340425532
14010,-0.4851063829787234,-0.2734042553191489,0.15531914893617021
14020,-0.17553191489361702,-0.25638297872340426,-0.023404255319148935
14030,0.026595744680851064,-0.16808510638297872,-0.1776595744680851
14040,-0.059574468085106386,-0.1148936170212766,-0.3021276595744681
14050,-0.1595744680851064,-0.01702127659574468,-0.31382978723404253
14060,-0.19680851063829788,0.047872340425531915,-0.2680851063829787
14070,-0.12659574468085105,0.10638297872340426,-0.16595744680851063
14080,0.05,0.1,-0.12872340425531914
14090,0.24680851063829787,0.09361702127659574,-0.23085106382978723
14100,0.2978723404255319,0.07553191489361702,-0.42021276595744683
14110,0.24468085106382978,0.07872340425531915,-0.5319148936170213
14120,0.05425531914893617,0.029787234042553193,-0.4595744680851064
14130,-0.14574468085106382,-0.04893617021276596,-0.2148936170212766
14140,-0.26276595744680853,-0.12127659574468085,0.0925531914893617
14150,-0.15106382978723404,-0.15106382978723404,0.2691489361702128
14160,0.17127659574468085,-0.11914893617021277,0.19574468085106383
14170,0.34361702127659577,-0.06808510638297872,-0.10957446808510639
14180,0.3861702127659574,0.035106382978723406,-0.49361702127659574
14190,0.4329787234042553,0.14893617021276595,-0.7787234042553192
14200,0.5,0.21914893617021278,-0.8351063829787234
14210,0.5404255319148936,0.21914893617021278,-0.7393617021276596
14220,0.5106382978723404,0.17553191489361702,-0.5861702127659575
14230,0.4723404255319149,0.09680851063829787,-0.46808510638297873
14240,0.524468085106383,0.03404255319148936,-0.3638297872340426
14250,0.6212765957446809,-0.022340425531914895,-0.2351063829787234
14260,0.6904255319148936,-0.039361702127659576,-0.1
14270,0.6585106382978724,-0.04042553191489362,0.05319148936170213
14280,0.55,-0.027659574468085105,0.18936170212765957
14290,0.42446808510638295,0,0.28085106382978725
14300,0.28085106382978725,0.03829787234042553,0.3276595744680851
14310,0.07765957446808511,0.039361702127659576,0.32978723404255317
14320,-0.15425531914893617,-0.0010638297872340426,0.26063829787234044
14330,-0.18085106382978725,-0.03297872340425532,0.043617021276595745
14340,0.1,0.018085106382978722,-0.3468085106382979
14350,0.35638297872340424,0.11382978723404255,-0.752127659574468
14360,0.4074468085106383,0.2425531914893617,-0.9553191489361702
14370,0.3797872340425532,0.31382978723404253,-0.8882978723404256
14380,0.3351063829787234,0.2797872340425532,-0.4702127659574468
14390,0.3893617021276596,0.09468085106382979,0.19787234042553192
14400,0.2276595744680851,-0.22340425531914893,0.8787234042553191
14410,0.20638297872340425,-0.46170212765957447,1.2829787234042553
14420,0.475531914893617,-0.474468085106383,1.2191489361702128
14430,0.49361702127659574,-0.26276595744680853,0.7925531914893617
14440,-0.0425531914893617,-0.02553191489361702,0.32127659574468087
14450,-1.0382978723404255,0.08829787234042553,0.014893617021276596
14460,-1.8893617021276596,0.08723404255319149,-0.125531914893617
14470,-2.1670212765957446,0.11808510638297873,-0.20319148936170212
14480,-1.774468085106383,0.09787234042553192,-0.14574468085106382
14490,-0.5468085106382978,-0.03723404255319149,-0.09148936170212765
14500,-0.04042553191489362,-0.1148936170212766,-0.06808510638297872
14510,-0.12127659574468085,-0.06914893617021277,-0.06063829787234042
14520,-0.08723404255319149,0.02446808510638298,-0.0851063829787234
14530,0.04893617021276596,0.07340425531914893,-0.0574468085106383
14540,-0.01702127659574468,0.07234042553191489,-0.02021276595744681
14550,-0.1925531914893617,0.05638297872340425,-0.05531914893617021
14560,-0.2851063829787234,0.019148936170212766,-0.14893617021276595
14570,-0.275531914893617,-0.01276595744680851,-0.23191489361702128
14580,-0.3606382978723404,-0.06170212765957447,-0.26595744680851063
14590,-0.41595744680851066,-0.06595744680851064,-0.298936170212766
14600,-0.14574468085106382,-0.00425531914893617,-0.3882978723404255
14610,0.16063829787234044,0.10319148936170212,-0.48936170212765956
14620,0.23617021276595745,0.18085106382978725,-0.4819148936170213
14630,0.14574468085106382,0.20425531914893616,-0.41382978723404257
14640,0.07765957446808511,0.21063829787234042,-0.29148936170212764
14650,0.027659574468085105,0.18829787234042553,-0.1202127659574468
14660,-0.011702127659574468,0.11808510638297873,0.03829787234042553
14670,0,0.0627659574468085,0.14893617021276595
14680,-0.035106382978723406,-0.006382978723404255,0.15
14690,0.007446808510638298,-0.029787234042553193,0.08191489361702127
14700,0.11702127659574468,-0.02553191489361702,-0.05531914893617021
14710,0.16063829787234044,-0.0031914893617021275,-0.14042553191489363
14720,0.18085106382978725,-0.00425531914893617,-0.1202127659574468
14730,0.17446808510638298,-0.043617021276595745,-0.019148936170212766
14740,0.16063829787234044,-0.10851063829787234,0.15319148936170213
14750,0.052127659574468084,-0.19893617021276597,0.3478723404255319
14760,-0.09893617021276596,-0.23829787234042554,0.4340425531914894
14770,-0.28191489361702127,-0.19893617021276597,0.35319148936170214
14780,-0.30851063829787234,-0.08723404255319149,0.1276595744680851
14790,-0.14574468085106382,0.07021276595744681,-0.16595744680851063
14800,0.1702127659574468,0.23191489361702128,-0.4297872340425532
14810,0.3446808510638298,0.3180851063829787,-0.5191489361702127
14820,0.4148936170212766,0.298936170212766,-0.4372340425531915
14830,0.3851063829787234,0.21595744680851064,-0.28404255319148936
14840,0.47127659574468084,0.11702127659574468,-0.18085106382978725
14850,0.6234042553191489,0.04148936170212766,-0.20638297872340425
14860,0.7606382978723404,-0.03404255319148936,-0.2531914893617021
14870,0.8787234042553191,-0.15319148936170213,-0.24148936170212765
14880,0.9329787234042554,-0.28617021276595744,-0.1851063829787234
14890,0.8904255319148936,-0.3797872340425532,-0.12978723404255318
14900,0.7755319148936171,-0.36914893617021277,-0.10638297872340426
14910,0.5925531914893617,-0.275531914893617,-0.13297872340425532
14920,0.35425531914893615,-0.11914893617021277,-0.21914893617021278
14930,0.13936170212765958,0.08085106382978724,-0.30319148936170215
14940,0.015957446808510637,0.24361702127659574,-0.324468085106383
14950,-0.07021276595744681,0.31382978723404253,-0.225531914893617
14960,-0.1276595744680851,0.27872340425531916,-0.052127659574468084
14970,-0.18404255319148935,0.19042553191489361,0.11382978723404255
14980,-0.21914893617021278,0.10531914893617021,0.1925531914893617
14990,-0.2765957446808511,0.05851063829787234,0.19893617021276597
15000,-0.3659574468085106,0.035106382978723406,0.13191489361702127
15010.10101010101,-0.42021276595744683,0.026595744680851064,0.007446808510638298
15020.20202020202,-0.36914893617021277,-0.018085106382978722,-0.1074468085106383
15030.30303030303,-0.23617021276595745,-0.09680851063829787,-0.15851063829787235
15040.40404040404,0.07765957446808511,-0.16808510638297872,-0.2
15050.505050505051,0.4946808510638298,-0.20851063829787234,-0.25638297872340426
15060.60606060606,0.6425531914893617,-0.21914893617021278,-0.26276595744680853
15070.70707070707,0.6180851063829788,-0.22234042553191488,-0.2297872340425532
15080.808080808081,0.6138297872340426,-0.26382978723404255,-0.2
15090.90909090909,0.6968085106382979,-0.3202127659574468,-0.18617021276595744
15101.0101010101,0.7425531914893617,-0.37872340425531914,-0.25
15111.111111111111,0.7542553191489362,-0.41914893617021276,-0.3468085106382979
15121.212121212122,0.6127659574468085,-0.4925531914893617,-0.39787234042553193
15131.31313131313,0.42446808510638295,-0.5808510638297872,-0.3606382978723404
15141.414141414141,0.14468085106382977,-0.676595744680851,-0.2670212765957447
15151.515151515152,-0.18829787234042553,-0.7606382978723404,-0.1372340425531915
15161.61616161616,-0.4648936170212766,-0.8393617021276596,-0.026595744680851064
15171.717171717171,-0.6468085106382979,-0.9053191489361702,0.026595744680851064
15181.818181818182,-0.7978723404255319,-0.9627659574468085,0.010638297872340425
15191.919191919193,-0.8925531914893617,-0.9808510638297873,-0.04148936170212766
15202.020202020201,-0.8627659574468085,-0.9776595744680852,-0.11063829787234042
15212.121212121212,-0.6574468085106383,-0.9478723404255319,-0.17446808510638298
15222.222222222223,-0.34893617021276596,-0.9297872340425531,-0.2425531914893617
15232.323232323231,-0.12872340425531914,-0.9308510638297872,-0.2574468085106383
15242.424242424242,-0.0031914893617021275,-0.9702127659574468,-0.21382978723404256
15252.525252525253,0.1595744680851064,-0.9946808510638298,-0.11382978723404255
15262.626262626263,0.28617021276595744,-1.0159574468085106,-0.010638297872340425
15272.727272727272,0.35,-0.9712765957446808,0.07765957446808511
15282.828282828283,0.2968085106382979,-0.8925531914893617,0.12659574468085105
15292.929292929293,0.21808510638297873,-0.7946808510638298,0.18829787234042553
15303.030303030304,0.10851063829787234,-0.6872340425531915,0.2393617021276596
15313.131313131313,-0.00425531914893617,-0.5723404255319149,0.2712765957446808
15323.232323232323,-0.02127659574468085,-0.49148936170212765,0.3127659574468085
15333.333333333334,-0.03829787234042553,-0.4595744680851064,0.36914893617021277
15343.434343434343,-0.039361702127659576,-0.4521276595744681,0.4148936170212766
15353.535353535353,-0.10851063829787234,-0.45,0.39893617021276595
15363.636363636364,-0.1276595744680851,-0.38085106382978723,0.3148936170212766
15373.737373737375,-0.2478723404255319,-0.2872340425531915,0.2372340425531915
15383.838383838383,-0.21595744680851064,-0.16489361702127658,0.18404255319148935
15393.939393939394,-0.2393617021276596,-0.01702127659574468,0.18723404255319148
15404.040404040405,-0.37659574468085105,0.10106382978723404,0.20851063829787234
15414.141414141413,-0.3606382978723404,0.26170212765957446,0.1351063829787234
15424.242424242424,-0.20638297872340425,0.4648936170212766,-0.011702127659574468
15434.343434343435,-0.07659574468085106,0.6191489361702127,-0.1425531914893617
15444.444444444445,0.09893617021276596,0.7319148936170212,-0.19574468085106383
15454.545454545454,0.275531914893617,0.8042553191489362,-0.15851063829787235
15464.646464646465,0.3425531914893617,0.8723404255319149,-0.10106382978723404
15474.747474747475,0.3276595744680851,0.9574468085106383,-0.04042553191489362
15484.848484848484,0.20106382978723406,1.0021276595744681,0.023404255319148935
15494.949494949495,-0.052127659574468084,0.997872340425532,0.11702127659574468
15505.050505050505,-0.2957446808510638,0.9563829787234043,0.2074468085106383
15515.151515151516,-0.46702127659574466,0.9138297872340425,0.2765957446808511
15525.252525252525,-0.5563829787234043,0.8872340425531915,0.32659574468085106
15535.353535353535,-0.6117021276595744,0.8797872340425532,0.3478723404255319
15545.454545454546,-0.6563829787234042,0.9191489361702128,0.4074468085106383
15555.555555555555,-0.6702127659574468,0.9521276595744681,0.4595744680851064
15565.656565656565,-0.6627659574468086,0.9648936170212766,0.5393617021276595
15575.757575757576,-0.747872340425532,0.9191489361702128,0.6063829787234043
15585.858585858587,-0.8117021276595745,0.8425531914893617,0.6127659574468085
15595.959595959595,-0.8202127659574469,0.7021276595744681,0.5351063829787234
15606.060606060606,-0.6446808510638298,0.5478723404255319,0.3606382978723404
15616.161616161617,-0.4765957446808511,0.44680851063829785,0.16382978723404254
15626.262626262625,-0.43829787234042555,0.4276595744680851,-0.015957446808510637
15636.363636363636,-0.275531914893617,0.548936170212766,-0.20212765957446807
15646.464646464647,-0.11170212765957446,0.7468085106382979,-0.3414893617021277
15656.565656565657,-0.005319148936170213,0.9,-0.3851063829787234
15666.666666666666,0.0925531914893617,0.9723404255319149,-0.32978723404255317
15676.767676767677,0.28297872340425534,0.9691489361702128,-0.21063829787234042
15686.868686868687,0.4765957446808511,0.8712765957446809,-0.05
15696.969696969696,0.5457446808510639,0.7021276595744681,0.10851063829787234
15707.070707070707,0.526595744680851,0.5127659574468085,0.18829787234042553
15717.171717171717,0.3851063829787234,0.3648936170212766,0.1574468085106383
15727.272727272728,0.15531914893617021,0.30425531914893617,0.01276595744680851
15737.373737373737,-0.13191489361702127,0.3393617021276596,-0.1425531914893617
15747.474747474747,-0.2404255319148936,0.3872340425531915,-0.28085106382978725
15757.575757575758,-0.06063829787234042,0.44680851063829785,-0.3425531914893617
15767.676767676767,0,0.43829787234042555,-0.30319148936170215
15777.777777777777,0.05,0.4117021276595745,-0.22446808510638297
15787.878787878788,0.14148936170212767,0.39361702127659576,-0.1797872340425532
15797.979797979799,0.31063829787234043,0.3670212765957447,-0.1702127659574468
15808.080808080807,0.4021276595744681,0.30531914893617024,-0.16276595744680852
15818.181818181818,0.3893617021276596,0.18723404255319148,-0.1351063829787234
15828.282828282829,0.35,0.027659574468085105,-0.03829787234042553
15838.383838383837,0.28085106382978725,-0.14893617021276595,0.07340425531914893
15848.484848484848,0.11170212765957446,-0.2478723404255319,0.16170212765957448
15858.585858585859,-0.03404255319148936,-0.21808510638297873,0.1776595744680851
15868.68686868687,-0.13936170212765958,-0.1074468085106383,0.18617021276595744
15878.787878787878,-0.21063829787234042,0.026595744680851064,0.2148936170212766
15888.888888888889,-0.2521276595744681,0.12659574468085105,0.24361702127659574
15898.9898989899,-0.23191489361702128,0.19574468085106383,0.2670212765957447
15909.090909090908,-0.08404255319148936,0.20425531914893616,0.28085106382978725
15919.191919191919,0.035106382978723406,0.15851063829787235,0.28085106382978725
15929.29292929293,0.08297872340425531,0.08617021276595745,0.28085106382978725
15939.39393939394,0.05425531914893617,-0.005319148936170213,0.31170212765957445
15949.494949494949,0.09787234042553192,-0.12978723404255318,0.3425531914893617
15959.59595959596,0.06063829787234042,-0.2074468085106383,0.3468085106382979
15969.69696969697,-0.002127659574468085,-0.24893617021276596,0.2691489361702128
15979.797979797979,-0.07021276595744681,-0.20957446808510638,0.12659574468085105
15989.89898989899,-0.06808510638297872,-0.13829787234042554,-0.03723404255319149
16000,0.039361702127659576,0.00851063829787234,-0.1819148936170213
16010,0.04680851063829787,0.14361702127659576,-0.28829787234042553
16020,0.07021276595744681,0.2542553191489362,-0.2946808510638298
16030,0.08191489361702127,0.26063829787234044,-0.20106382978723406
16040,0.026595744680851064,0.18404255319148935,-0.005319148936170213
16050,0.023404255319148935,0.07765957446808511,0.1574468085106383
16060,0.10212765957446808,0.009574468085106383,0.18936170212765957
16070,0.12872340425531914,-0.045744680851063826,0.15638297872340426
16080,0.14042553191489363,-0.06595744680851064,0.10531914893617021
16090,0.1819148936170213,-0.026595744680851064,0.0851063829787234
16100,0.1202127659574468,0.009574468085106383,0.13617021276595745
16110,0.00425531914893617,0.06489361702127659,0.2276595744680851
16120,-0.04680851063829787,0.11702127659574468,0.2372340425531915
16130,-0.11595744680851064,0.21382978723404256,0.2170212765957447
16140,-0.17659574468085107,0.3393617021276596,0.1723404255319149
16150,-0.13936170212765958,0.48617021276595745,0.12127659574468085
16160,-0.09042553191489362,0.5914893617021276,0.13829787234042554
16170,-0.02021276595744681,0.6234042553191489,0.16489361702127658
16180,0.07127659574468086,0.6436170212765957,0.16276595744680852
16190,0.09574468085106383,0.6308510638297873,0.15319148936170213
16200,0.11382978723404255,0.573404255319149,0.1723404255319149
16210,0.10957446808510639,0.5031914893617021,0.1851063829787234
16220,0.1,0.46382978723404256,0.17446808510638298
16230,0.05319148936170213,0.44680851063829785,0.16914893617021276
16240,-0.027659574468085105,0.43936170212765957,0.20106382978723406
16250,-0.02553191489361702,0.4031914893617021,0.2648936170212766
16260,-0.031914893617021274,0.30106382978723406,0.28936170212765955
16270,-0.06063829787234042,0.19893617021276597,0.2542553191489362
16280,-0.15531914893617021,0.11595744680851064,0.13936170212765958
16290,-0.2372340425531915,0.07021276595744681,0.047872340425531915
16300,-0.19148936170212766,0.010638297872340425,0
16310,-0.125531914893617,-0.03404255319148936,0.023404255319148935
16320,-0.11063829787234042,-0.06063829787234042,0.031914893617021274
16330,-0.009574468085106383,-0.036170212765957444,0.03297872340425532
16340,0.14680851063829786,-0.014893617021276596,0.013829787234042552
16350,0.22872340425531915,0,-0.027659574468085105
16360,0.2393617021276596,0.036170212765957444,-0.11382978723404255
16370,0.2702127659574468,0.07021276595744681,-0.2670212765957447
16380,0.2925531914893617,0.10106382978723404,-0.42340425531914894
16390,0.23297872340425532,0.1074468085106383,-0.5414893617021277
16400,0.12340425531914893,0.08936170212765958,-0.6468085106382979
16410,-0.026595744680851064,0.06489361702127659,-0.7329787234042553
16420,-0.035106382978723406,0.1,-0.7957446808510639
16430,0.10851063829787234,0.14468085106382977,-0.7819148936170213
16440,0.32872340425531915,0.13404255319148936,-0.6276595744680851
16450,0.5180851063829788,0.0627659574468085,-0.3893617021276596
16460,0.5946808510638298,0.0031914893617021275,-0.1797872340425532
16470,0.5851063829787234,-0.02872340425531915,-0.047872340425531915
16480,0.4521276595744681,-0.039361702127659576,-0.010638297872340425
16490,0.3574468085106383,-0.0010638297872340426,-0.07872340425531915
16500,0.2712765957446808,0.06595744680851064,-0.16063829787234044
16510,0.19787234042553192,0.11382978723404255,-0.18829787234042553
16520,0.15106382978723404,0.14361702127659576,-0.11063829787234042
16530,0.09787234042553192,0.16808510638297872,0.014893617021276596
16540,0.07872340425531915,0.17659574468085107,0.13829787234042554
16550,0.12127659574468085,0.15212765957446808,0.21063829787234042
16560,0.17127659574468085,0.09893617021276596,0.22234042553191488
16570,0.22340425531914893,0.052127659574468084,0.1946808510638298
16580,0.2691489361702128,0.002127659574468085,0.12234042553191489
16590,0.30425531914893617,-0.02021276595744681,0.045744680851063826
16600,0.3180851063829787,-0.03723404255319149,-0.019148936170212766
16610,0.30638297872340425,-0.026595744680851064,-0.06808510638297872
16620,0.23617021276595745,-0.0010638297872340426,-0.1351063829787234
16630,0.14042553191489363,0.026595744680851064,-0.19680851063829788
16640,0.04893617021276596,0.05,-0.20851063829787234
16650,0.01702127659574468,0.0425531914893617,-0.17872340425531916
16660,0.06808510638297872,0.006382978723404255,-0.08085106382978724
16670,0.1946808510638298,-0.06914893617021277,0.04468085106382979
16680,0.30319148936170215,-0.16276595744680852,0.15
16690,0.3840425531914894,-0.2127659574468085,0.21914893617021278
16700,0.3627659574468085,-0.2425531914893617,0.20106382978723406
16710,0.30531914893617024,-0.2393617021276596,0.12446808510638298
16720,0.19042553191489361,-0.1851063829787234,0.03297872340425532
16730,-0.05425531914893617,-0.12446808510638298,-0.03829787234042553
16740,-0.3074468085106383,-0.07765957446808511,-0.02872340425531915
16750,-0.5191489361702127,-0.04680851063829787,0.013829787234042552
16760,-0.652127659574468,-0.026595744680851064,0.005319148936170213
16770,-0.6351063829787233,0.013829787234042552,-0.02553191489361702
16780,-0.5329787234042553,0.03404255319148936,-0.05531914893617021
16790,-0.3627659574468085,-0.009574468085106383,-0.035106382978723406
16800,-0.18404255319148935,-0.10425531914893617,0.03297872340425532
16810,-0.11808510638297873,-0.19680851063829788,0.11063829787234042
16820,-0.17127659574468085,-0.25,0.2
16830,-0.30957446808510636,-0.2712765957446808,0.2553191489361702
16840,-0.49042553191489363,-0.22659574468085106,0.2648936170212766
16850,-0.6691489361702128,-0.16489361702127658,0.23829787234042554
16860,-0.8404255319148937,-0.11702127659574468,0.24468085106382978
16870,-0.8893617021276595,-0.10425531914893617,0.28617021276595744
16880,-0.9170212765957447,-0.11914893617021277,0.32978723404255317
16890,-0.9212765957446809,-0.15638297872340426,0.34361702127659577
16900,-0.95,-0.1851063829787234,0.34361702127659577
16910,-1.0148936170212766,-0.23085106382978723,0.324468085106383
16920,-1.048936170212766,-0.2542553191489362,0.29148936170212764
16930,-1.0319148936170213,-0.25,0.28085106382978725
16940,-1.0372340425531914,-0.24361702127659574,0.28617021276595744
16950,-1.0127659574468084,-0.2351063829787234,0.251063829787234
16960,-0.8085106382978723,-0.21382978723404256,0.12340425531914893
16970,-0.43829787234042555,-0.20851063829787234,-0.09680851063829787
16980,0.019148936170212766,-0.22127659574468084,-0.3180851063829787
16990,0.34361702127659577,-0.28191489361702127,-0.4946808510638298
17000,0.7074468085106383,-0.3606382978723404,-0.6021276595744681
17010.10101010101,1.1138297872340426,-0.4329787234042553,-0.6840425531914893
17020.20202020202,1.4063829787234043,-0.49361702127659574,-0.7617021276595745
17030.303030303032,1.5053191489361701,-0.5074468085106383,-0.825531914893617
17040.40404040404,1.4851063829787234,-0.4095744680851064,-0.8414893617021276
17050.50505050505,1.347872340425532,-0.21808510638297873,-0.847872340425532
17060.60606060606,1.1361702127659574,-0.022340425531914895,-0.8180851063829787
17070.70707070707,0.8872340425531915,0.1202127659574468,-0.6936170212765957
17080.80808080808,0.6914893617021277,0.16382978723404254,-0.5553191489361702
17090.909090909092,0.6085106382978723,0.16489361702127658,-0.4308510638297872
17101.010101010103,0.5904255319148937,0.16702127659574467,-0.32127659574468087
17111.11111111111,0.5670212765957446,0.15106382978723404,-0.18829787234042553
17121.21212121212,0.44468085106382976,0.14042553191489363,-0.027659574468085105
17131.31313131313,0.2351063829787234,0.11170212765957446,0.09680851063829787
17141.41414141414,0.02021276595744681,0.07234042553191489,0.19148936170212766
17151.515151515152,-0.17553191489361702,-0.0031914893617021275,0.25851063829787235
17161.616161616163,-0.3382978723404255,-0.08085106382978724,0.2946808510638298
17171.717171717173,-0.46808510638297873,-0.1425531914893617,0.3
17181.81818181818,-0.5851063829787234,-0.18404255319148935,0.2648936170212766
17191.91919191919,-0.625531914893617,-0.2148936170212766,0.23617021276595745
17202.0202020202,-0.6446808510638298,-0.2425531914893617,0.22446808510638297
17212.121212121212,-0.6297872340425532,-0.26170212765957446,0.18617021276595744
17222.222222222223,-0.5627659574468085,-0.2680851063829787,0.14893617021276595
17232.323232323233,-0.4372340425531915,-0.25638297872340426,0.16489361702127658
17242.424242424244,-0.2957446808510638,-0.22446808510638297,0.2148936170212766
17252.52525252525,-0.1425531914893617,-0.17872340425531916,0.28829787234042553
17262.62626262626,-0.06595744680851064,-0.15106382978723404,0.29148936170212764
17272.727272727272,-0.11595744680851064,-0.12234042553191489,0.26170212765957446
17282.828282828283,-0.14680851063829786,-0.11595744680851064,0.14361702127659576
17292.929292929293,-0.07021276595744681,-0.08085106382978724,0.011702127659574468
17303.030303030304,-0.07659574468085106,-0.07553191489361702,-0.04893617021276596
17313.131313131315,-0.13829787234042554,-0.08617021276595745,-0.07340425531914893
17323.23232323232,-0.22021276595744682,-0.035106382978723406,-0.10957446808510639
17333.333333333332,-0.33404255319148934,0.0010638297872340426,-0.15319148936170213
17343.434343434343,-0.39361702127659576,0.04680851063829787,-0.24468085106382978
17353.535353535353,-0.35,0.07234042553191489,-0.3797872340425532
17363.636363636364,-0.2276595744680851,0.007446808510638298,-0.4765957446808511
17373.737373737375,-0.05,-0.10851063829787234,-0.5031914893617021
17383.838383838385,0.05,-0.20638297872340425,-0.46595744680851064
17393.939393939392,0.10638297872340426,-0.25851063829787235,-0.4031914893617021
17404.040404040403,0.18085106382978725,-0.23617021276595745,-0.3446808510638298
17414.141414141413,0.25638297872340426,-0.17553191489361702,-0.2712765957446808
17424.242424242424,0.26382978723404255,-0.1,-0.16702127659574467
17434.343434343435,0.2404255319148936,-0.05,-0.0851063829787234
17444.444444444445,0.2670212765957447,-0.02872340425531915,-0.019148936170212766
17454.545454545456,0.33404255319148934,-0.052127659574468084,0.002127659574468085
17464.646464646463,0.4553191489361702,-0.06382978723404255,0.005319148936170213
17474.747474747473,0.6287234042553191,-0.0797872340425532,-0.03297872340425532
17484.848484848484,0.7670212765957447,-0.08723404255319149,-0.07659574468085106
17494.949494949495,0.8329787234042553,-0.08191489361702127,-0.15319148936170213
17505.050505050505,0.874468085106383,-0.05425531914893617,-0.22234042553191488
17515.151515151516,0.8436170212765958,-0.011702127659574468,-0.21170212765957447
17525.252525252527,0.7148936170212766,0.026595744680851064,-0.1372340425531915
17535.353535353534,0.5117021276595745,0.09361702127659574,-0.0574468085106383
17545.454545454544,0.3223404255319149,0.17340425531914894,-0.009574468085106383
17555.555555555555,0.09787234042553192,0.2372340425531915,0.04042553191489362
17565.656565656565,-0.19893617021276597,0.28829787234042553,0.1148936170212766
17575.757575757576,-0.4319148936170213,0.3021276595744681,0.20851063829787234
17585.858585858587,-0.5351063829787234,0.27872340425531916,0.2680851063829787
17595.959595959597,-0.46808510638297873,0.25638297872340426,0.31063829787234043
17606.060606060608,-0.35638297872340424,0.21808510638297873,0.30851063829787234
17616.161616161615,-0.33191489361702126,0.16914893617021276,0.3127659574468085
17626.262626262625,-0.37872340425531914,0.11702127659574468,0.3372340425531915
17636.363636363636,-0.425531914893617,0.0627659574468085,0.3595744680851064
17646.464646464647,-0.4053191489361702,0.022340425531914895,0.4095744680851064
17656.565656565657,-0.4127659574468085,-0.005319148936170213,0.45851063829787236
17666.666666666668,-0.4340425531914894,-0.010638297872340425,0.5212765957446809
17676.767676767675,-0.47127659574468084,0.0010638297872340426,0.5574468085106383
17686.868686868685,-0.5,0.018085106382978722,0.5659574468085107
17696.969696969696,-0.4829787234042553,0.0425531914893617,0.5446808510638298
17707.070707070707,-0.4563829787234043,0.06808510638297872,0.474468085106383
17717.171717171717,-0.37659574468085105,0.12446808510638298,0.35
17727.272727272728,-0.37127659574468086,0.18829787234042553,0.18723404255319148
17737.37373737374,-0.3829787234042553,0.251063829787234,0.06595744680851064
17747.47474747475,-0.3414893617021277,0.28404255319148936,0.02021276595744681
17757.575757575756,-0.28617021276595744,0.2702127659574468,0.07553191489361702
17767.676767676767,-0.33404255319148934,0.2127659574468085,0.2148936170212766
17777.777777777777,-0.48404255319148937,0.11382978723404255,0.35638297872340424
17787.878787878788,-0.5042553191489362,0.03297872340425532,0.42340425531914894
17797.9797979798,-0.5042553191489362,-0.011702127659574468,0.39680851063829786
17808.08080808081,-0.44148936170212766,-0.011702127659574468,0.2978723404255319
