Milliseconds,GyroX,GyroY,GyroZ
1000,0.30319148936170215,-0.14468085106382977,0.20319148936170212
1010.10101010101,0.28617021276595744,-0.18617021276595744,0.22446808510638297
1020.2020202020202,0.30851063829787234,-0.24680851063829787,0.2553191489361702
1030.3030303030303,0.2765957446808511,-0.24361702127659574,0.20425531914893616
1040.4040404040404,0.1946808510638298,-0.13297872340425532,0.07127659574468086
1050.5050505050506,0.16489361702127658,-0.05106382978723404,-0.02446808510638298
1060.6060606060605,0.09787234042553192,-0.02127659574468085,-0.07872340425531915
1070.7070707070707,0.047872340425531915,-0.06914893617021277,-0.09042553191489362
1080.8080808080808,-0.04148936170212766,-0.18085106382978725,-0.09148936170212765
1090.909090909091,-0.19574468085106383,-0.24361702127659574,-0.16276595744680852
1101.010101010101,-0.2797872340425532,-0.2297872340425532,-0.28829787234042553
1111.111111111111,-0.23404255319148937,-0.2,-0.3553191489361702
1121.2121212121212,-0.11595744680851064,-0.1797872340425532,-0.2925531914893617
1131.3131313131312,-0.05851063829787234,-0.14148936170212767,-0.16702127659574467
1141.4141414141413,-0.09574468085106383,-0.10212765957446808,-0.015957446808510637
1151.5151515151515,-0.19680851063829788,-0.11063829787234042,0.12340425531914893
1161.6161616161617,-0.2531914893617021,-0.16914893617021276,0.15
1171.7171717171718,-0.23085106382978723,-0.225531914893617,0.10212765957446808
1181.8181818181818,-0.21808510638297873,-0.26276595744680853,0.030851063829787233
1191.919191919192,-0.3382978723404255,-0.28297872340425534,-0.027659574468085105
1202.020202020202,-0.4531914893617021,-0.2957446808510638,-0.07765957446808511
1212.121212121212,-0.47127659574468084,-0.3021276595744681,-0.05851063829787234
1222.2222222222222,-0.41808510638297874,-0.30957446808510636,-0.022340425531914895
1232.3232323232323,-0.3021276595744681,-0.3202127659574468,0.02553191489361702
1242.4242424242425,-0.16702127659574467,-0.35106382978723405,0.10531914893617021
1252.5252525252524,-0.11808510638297873,-0.36914893617021277,0.1829787234042553
1262.6262626262626,-0.125531914893617,-0.3446808510638298,0.2680851063829787
1272.7272727272727,-0.20638297872340425,-0.32659574468085106,0.3478723404255319
1282.8282828282827,-0.3670212765957447,-0.3202127659574468,0.3595744680851064
1292.9292929292928,-0.55,-0.31382978723404253,0.32659574468085106
1303.030303030303,-0.6553191489361702,-0.36914893617021277,0.3021276595744681
1313.1313131313132,-0.6308510638297873,-0.46702127659574466,0.30851063829787234
1323.2323232323233,-0.48936170212765956,-0.5382978723404256,0.3446808510638298
1333.3333333333333,-0.3606382978723404,-0.6,0.41808510638297874
1343.4343434343434,-0.19680851063829788,-0.6936170212765957,0.5212765957446809
1353.5353535353536,-0.12127659574468085,-0.7457446808510638,0.5276595744680851
1363.6363636363635,-0.22446808510638297,-0.7148936170212766,0.3946808510638298
1373.7373737373737,-0.42872340425531913,-0.6159574468085106,0.23191489361702128
1383.8383838383838,-0.6361702127659574,-0.5223404255319148,0.12127659574468085
1393.939393939394,-0.6553191489361702,-0.4957446808510638,0.10212765957446808
1404.0404040404042,-0.5808510638297872,-0.474468085106383,0.17553191489361702
1414.141414141414,-0.5808510638297872,-0.40638297872340423,0.2872340425531915
1424.2424242424242,-0.6829787234042554,-0.3021276595744681,0.3797872340425532
1434.3434343434342,-0.7244680851063829,-0.2648936170212766,0.4957446808510638
1444.4444444444443,-0.9702127659574468,-0.225531914893617,0.4127659574468085
1454.5454545454545,-0.8127659574468085,-0.3393617021276596,0.3797872340425532
1464.6464646464647,-0.8319148936170213,-0.44574468085106383,0.2670212765957447
1474.7474747474748,-0.975531914893617,-0.5382978723404256,0.04148936170212766
1484.8484848484848,-0.8946808510638298,-0.6351063829787233,-0.10425531914893617
1494.949494949495,-0.5468085106382978,-0.676595744680851,-0.22340425531914893
1505.050505050505,-0.3840425531914894,-0.6265957446808511,-0.33085106382978724
1515.151515151515,-0.32553191489361705,-0.5861702127659575,-0.34361702127659577
1525.2525252525252,-0.19148936170212766,-0.5670212765957446,-0.22234042553191488
1535.3535353535353,-0.00851063829787234,-0.5382978723404256,-0.013829787234042552
1545.4545454545455,0.23191489361702128,-0.48829787234042554,0.2170212765957447
1555.5555555555557,0.26170212765957446,-0.35319148936170214,0.3638297872340426
1565.6565656565656,0.06170212765957447,-0.18404255319148935,0.3882978723404255
1575.7575757575758,-0.21595744680851064,-0.07340425531914893,0.33404255319148934
1585.8585858585857,-0.44468085106382976,-0.0574468085106383,0.22340425531914893
1595.9595959595958,-0.48617021276595745,-0.10531914893617021,0.13297872340425532
1606.060606060606,-0.32872340425531915,-0.24680851063829787,0.11382978723404255
1616.1616161616162,-0.3159574468085106,-0.35638297872340424,0.03297872340425532
1626.2626262626263,-0.33404255319148934,-0.4329787234042553,-0.022340425531914895
1636.3636363636365,-0.23617021276595745,-0.5531914893617021,0.06595744680851064
1646.4646464646464,-0.1851063829787234,-0.6329787234042553,0.17553191489361702
1656.5656565656564,-0.125531914893617,-0.6414893617021277,0.17340425531914894
1666.6666666666665,-0.02127659574468085,-0.5872340425531914,0.1372340425531915
1676.7676767676767,0.1351063829787234,-0.5042553191489362,0.1372340425531915
1686.8686868686868,0.3648936170212766,-0.46808510638297873,0.26063829787234044
1696.969696969697,0.5595744680851064,-0.4787234042553192,0.4478723404255319
1707.0707070707072,0.6138297872340426,-0.48936170212765956,0.551063829787234
1717.171717171717,0.5723404255319149,-0.47127659574468084,0.5659574468085107
1727.2727272727273,0.4542553191489362,-0.3904255319148936,0.498936170212766
1737.3737373737372,0.4,-0.28191489361702127,0.451063829787234
1747.4747474747473,0.324468085106383,-0.19042553191489361,0.4329787234042553
1757.5757575757575,0.24893617021276596,-0.16808510638297872,0.4095744680851064
1767.6767676767677,0.24893617021276596,-0.20106382978723406,0.41382978723404257
1777.7777777777778,0.11063829787234042,-0.1925531914893617,0.35319148936170214
1787.878787878788,-0.14148936170212767,-0.15212765957446808,0.2170212765957447
1797.979797979798,-0.4,-0.13404255319148936,0.06170212765957447
1808.080808080808,-0.6468085106382979,-0.1351063829787234,-0.12234042553191489
1818.181818181818,-0.7489361702127659,-0.16595744680851063,-0.2351063829787234
1828.2828282828282,-0.7468085106382979,-0.21808510638297873,-0.2574468085106383
1838.3838383838383,-0.6627659574468086,-0.2968085106382979,-0.24361702127659574
1848.4848484848485,-0.5031914893617021,-0.39361702127659576,-0.2053191489361702
1858.5858585858587,-0.33297872340425533,-0.46808510638297873,-0.18723404255319148
1868.6868686868686,-0.20957446808510638,-0.475531914893617,-0.2170212765957447
1878.7878787878788,-0.1127659574468085,-0.41595744680851066,-0.27872340425531916
1888.8888888888887,-0.039361702127659576,-0.30957446808510636,-0.30638297872340425
1898.9898989898988,0.08191489361702127,-0.19680851063829788,-0.2851063829787234
1909.090909090909,0.34893617021276596,-0.13829787234042554,-0.19042553191489361
1919.1919191919192,0.6212765957446809,-0.08936170212765958,-0.09787234042553192
1929.2929292929293,0.6436170212765957,0.007446808510638298,-0.12978723404255318
1939.3939393939395,0.4553191489361702,0.11808510638297873,-0.23617021276595745
1949.4949494949494,0.2127659574468085,0.21063829787234042,-0.3351063829787234
1959.5959595959596,-0.0010638297872340426,0.2765957446808511,-0.37446808510638296
1969.6969696969695,-0.125531914893617,0.3223404255319149,-0.3861702127659574
1979.7979797979797,-0.17127659574468085,0.3702127659574468,-0.42659574468085104
1989.8989898989898,-0.14042553191489363,0.4297872340425532,-0.49042553191489363
2000,0.006382978723404255,0.4978723404255319,-0.5234042553191489
2010,0.2425531914893617,0.5595744680851064,-0.5127659574468085
2020,0.40106382978723404,0.6627659574468086,-0.5138297872340426
2030,0.5553191489361702,0.8223404255319149,-0.5372340425531915
2040,0.6159574468085106,1.0606382978723403,-0.5659574468085107
2050,0.6095744680851064,1.3148936170212766,-0.5563829787234043
2060,0.5829787234042553,1.4648936170212765,-0.46063829787234045
2070,0.4978723404255319,1.475531914893617,-0.37340425531914895
2080,0.4372340425531915,1.3648936170212767,-0.34574468085106386
2090,0.3904255319148936,1.2117021276595745,-0.3925531914893617
2100,0.43617021276595747,1.0202127659574467,-0.4074468085106383
2110,0.41808510638297874,0.8468085106382979,-0.4095744680851064
2120,0.35106382978723405,0.7191489361702128,-0.4276595744680851
2130,0.22021276595744682,0.6287234042553191,-0.4531914893617021
2140,0.1425531914893617,0.5276595744680851,-0.42127659574468085
2150,0.12978723404255318,0.40106382978723404,-0.35638297872340424
2160,0.13085106382978723,0.30851063829787234,-0.3574468085106383
2170,0.18404255319148935,0.2712765957446808,-0.37340425531914895
2180,0.2425531914893617,0.2904255319148936,-0.37127659574468086
2190,0.3404255319148936,0.30531914893617024,-0.2946808510638298
2200,0.42127659574468085,0.28617021276595744,-0.2053191489361702
2210,0.4829787234042553,0.275531914893617,-0.18085106382978725
2220,0.524468085106383,0.2925531914893617,-0.21063829787234042
2230,0.5191489361702127,0.3159574468085106,-0.25638297872340426
2240,0.5287234042553192,0.3170212765957447,-0.28191489361702127
2250,0.5393617021276595,0.30531914893617024,-0.275531914893617
2260,0.45851063829787236,0.28829787234042553,-0.30638297872340425
2270,0.3723404255319149,0.23829787234042554,-0.3659574468085106
2280,0.28936170212765955,0.19361702127659575,-0.39787234042553193
2290,0.28085106382978725,0.15425531914893617,-0.3382978723404255
2300,0.30638297872340425,0.10106382978723404,-0.18617021276595744
2310,0.32872340425531915,0.05425531914893617,-0.01702127659574468
2320,0.298936170212766,0,0.08723404255319149
2330,0.22021276595744682,-0.031914893617021274,0.1
2340,0.09361702127659574,-0.035106382978723406,0.0425531914893617
2350,-0.031914893617021274,-0.036170212765957444,-0.011702127659574468
2360,-0.1074468085106383,-0.039361702127659576,-0.0574468085106383
2370,-0.14680851063829786,-0.026595744680851064,-0.12978723404255318
2380,-0.16063829787234044,-0.007446808510638298,-0.22127659574468084
2390,-0.1776595744680851,0.011702127659574468,-0.2936170212765957
2400,-0.1574468085106383,0.05,-0.30851063829787234
2410,-0.13829787234042554,0.09787234042553192,-0.2712765957446808
2420,-0.13085106382978723,0.15638297872340426,-0.2680851063829787
2430,-0.043617021276595745,0.18085106382978725,-0.24893617021276596
2440,0.010638297872340425,0.18723404255319148,-0.2053191489361702
2450,-0.05531914893617021,0.16702127659574467,-0.1702127659574468
2460,-0.17446808510638298,0.125531914893617,-0.17872340425531916
2470,-0.26382978723404255,0.09468085106382979,-0.2404255319148936
2480,-0.24361702127659574,0.09787234042553192,-0.33617021276595743
2490,-0.16914893617021276,0.1202127659574468,-0.3904255319148936
2500,-0.1202127659574468,0.12446808510638298,-0.3840425531914894
2510,-0.13404255319148936,0.12234042553191489,-0.39574468085106385
2520,-0.1127659574468085,0.13936170212765958,-0.41808510638297874
2530,-0.06595744680851064,0.14361702127659576,-0.39148936170212767
2540,-0.05531914893617021,0.13085106382978723,-0.33085106382978724
2550,-0.06595744680851064,0.10851063829787234,-0.274468085106383
2560,-0.07446808510638298,0.09787234042553192,-0.2851063829787234
2570,-0.03297872340425532,0.09893617021276596,-0.3680851063829787
2580,-0.08404255319148936,0.11595744680851064,-0.5010638297872341
2590,-0.14680851063829786,0.13829787234042554,-0.573404255319149
2600,-0.24680851063829787,0.1425531914893617,-0.5393617021276595
2610,-0.3851063829787234,0.15531914893617021,-0.42872340425531913
2620,-0.5223404255319148,0.20319148936170212,-0.29148936170212764
2630,-0.7329787234042553,0.30106382978723406,-0.2542553191489362
2640,-0.7734042553191489,0.3776595744680851,-0.2702127659574468
2650,-0.4148936170212766,0.32872340425531915,-0.15
2660,0.19574468085106383,0.16808510638297872,0.18829787234042553
2670,0.035106382978723406,0.17446808510638298,0.33617021276595743
2680,-0.5521276595744681,0.30531914893617024,0.22340425531914893
2690,-1.0063829787234042,0.41382978723404257,0.10957446808510639
2700,-1.1861702127659575,0.4563829787234043,-0.06489361702127659
2710,-1.3095744680851065,0.5180851063829788,-0.4340425531914894
2720,-1.4138297872340426,0.6553191489361702,-0.9457446808510638
2730,-1.2521276595744681,0.8021276595744681,-1.3138297872340425
2740,-1.1563829787234043,0.951063829787234,-1.5
2750,-1.0765957446808512,1.0702127659574467,-1.5202127659574467
2760,-0.8968085106382979,1.2,-1.2436170212765958
2770,-0.7553191489361702,1.3648936170212767,-0.7808510638297872
2780,-0.49148936170212765,1.474468085106383,-0.2765957446808511
2790,-0.10531914893617021,1.421276595744681,0.05851063829787234
2800,0.5297872340425532,1.1553191489361703,0.12659574468085105
2810,1.3085106382978724,0.7680851063829788,0.011702127659574468
2820,1.8382978723404255,0.4531914893617021,-0.07446808510638298
2830,1.9170212765957446,0.275531914893617,0.006382978723404255
2840,1.7095744680851064,0.2,0.22340425531914893
2850,1.2106382978723405,0.23297872340425532,0.3659574468085106
2860,0.7382978723404255,0.3925531914893617,0.40638297872340423
2870,0.34361702127659577,0.648936170212766,0.4329787234042553
2880,0.1425531914893617,0.7670212765957447,0.5553191489361702
2890,0.17127659574468085,0.6893617021276596,0.7510638297872341
2900,0.2957446808510638,0.5968085106382979,0.8127659574468085
2910,0.2648936170212766,0.6319148936170212,0.5585106382978723
2920,0.15531914893617021,0.7170212765957447,0.16382978723404254
2930,0.12127659574468085,0.6393617021276595,-0.15425531914893617
2940,0.2978723404255319,0.4478723404255319,-0.37446808510638296
2950,0.6117021276595744,0.30425531914893617,-0.46702127659574466
2960,0.6414893617021277,0.33191489361702126,-0.5031914893617021
2970,0.5,0.4021276595744681,-0.39148936170212767
2980,0.01702127659574468,0.4925531914893617,-0.23085106382978723
2990,-0.6946808510638298,0.6202127659574468,-0.23191489361702128
3000,-0.8851063829787233,0.5925531914893617,-0.12659574468085105
3010.10101010101,-0.49361702127659574,0.32553191489361705,0.10106382978723404
3020.2020202020203,0.5255319148936171,-0.04680851063829787,0.274468085106383
3030.3030303030305,1.3308510638297872,-0.1,0.07021276595744681
3040.40404040404,1.4180851063829787,0.16170212765957448,-0.24468085106382978
3050.5050505050503,1.053191489361702,0.4851063829787234,-0.4117021276595745
3060.6060606060605,0.7117021276595744,0.6393617021276595,-0.3414893617021277
3070.7070707070707,0.4553191489361702,0.6085106382978723,-0.1829787234042553
3080.808080808081,0.30106382978723406,0.5202127659574468,-0.03829787234042553
3090.909090909091,0.1478723404255319,0.3840425531914894,0.08617021276595745
3101.010101010101,0.052127659574468084,0.16914893617021276,0.14148936170212767
3111.1111111111113,-0.015957446808510637,0.018085106382978722,0.09042553191489362
3121.212121212121,-0.1,0.029787234042553193,0
3131.313131313131,-0.28404255319148936,0.16063829787234044,-0.07446808510638298
3141.4141414141413,-0.3925531914893617,0.2797872340425532,-0.10957446808510639
3151.5151515151515,-0.5287234042553192,0.42340425531914894,-0.22127659574468084
3161.6161616161617,-0.7361702127659574,0.597872340425532,-0.44361702127659575
3171.717171717172,-0.8,0.675531914893617,-0.5117021276595745
3181.818181818182,-0.6829787234042554,0.6606382978723404,-0.33404255319148934
3191.9191919191917,-0.4648936170212766,0.5808510638297872,0.031914893617021274
3202.020202020202,-0.1829787234042553,0.4106382978723404,0.4297872340425532
3212.121212121212,0.12234042553191489,0.24361702127659574,0.6776595744680851
3222.222222222222,0.34574468085106386,0.15531914893617021,0.6095744680851064
3232.3232323232323,0.3170212765957447,0.19680851063829788,0.1276595744680851
3242.4242424242425,0.2478723404255319,0.37872340425531914,-0.5138297872340426
3252.5252525252527,0.26170212765957446,0.5223404255319148,-0.8638297872340426
3262.6262626262624,0.2074468085106383,0.575531914893617,-0.9340425531914893
3272.7272727272725,0.20638297872340425,0.573404255319149,-0.8265957446808511
3282.8282828282827,0.24148936170212765,0.524468085106383,-0.5904255319148937
3292.929292929293,0.16489361702127658,0.5148936170212766,-0.35106382978723405
3303.030303030303,-0.039361702127659576,0.5925531914893617,-0.12340425531914893
3313.131313131313,-0.28936170212765955,0.6840425531914893,0.02553191489361702
3323.2323232323233,-0.48936170212765956,0.7659574468085106,0.045744680851063826
3333.3333333333335,-0.5585106382978723,0.8085106382978723,-0.02553191489361702
3343.4343434343436,-0.5446808510638298,0.7925531914893617,-0.20425531914893616
3353.5353535353534,-0.3925531914893617,0.7180851063829787,-0.37659574468085105
3363.6363636363635,-0.20319148936170212,0.6542553191489362,-0.44893617021276594
3373.7373737373737,-0.05425531914893617,0.5989361702127659,-0.42446808510638295
3383.838383838384,0.045744680851063826,0.5702127659574469,-0.35212765957446807
3393.939393939394,0.014893617021276596,0.5925531914893617,-0.3414893617021277
3404.040404040404,-0.027659574468085105,0.5787234042553191,-0.3670212765957447
3414.1414141414143,0.05319148936170213,0.5329787234042553,-0.3021276595744681
3424.242424242424,0.1425531914893617,0.5329787234042553,-0.16489361702127658
3434.343434343434,0.20425531914893616,0.55,-0.05319148936170213
3444.4444444444443,0.2053191489361702,0.5957446808510638,-0.0797872340425532
3454.5454545454545,0.1202127659574468,0.6648936170212766,-0.2148936170212766
3464.6464646464647,-0.018085106382978722,0.6968085106382979,-0.3425531914893617
3474.747474747475,-0.0797872340425532,0.6627659574468086,-0.3797872340425532
3484.848484848485,-0.04893617021276596,0.6170212765957447,-0.3148936170212766
3494.9494949494947,-0.01276595744680851,0.5797872340425532,-0.19361702127659575
3505.050505050505,-0.03723404255319149,0.5648936170212766,-0.13936170212765958
3515.151515151515,-0.027659574468085105,0.4808510638297872,-0.13191489361702127
3525.252525252525,0.039361702127659576,0.28297872340425534,-0.1074468085106383
3535.3535353535353,0.15106382978723404,0.014893617021276596,-0.019148936170212766
3545.4545454545455,0.20957446808510638,-0.274468085106383,0.0925531914893617
3555.5555555555557,0.28404255319148936,-0.44042553191489364,0.11595744680851064
3565.6565656565654,0.32659574468085106,-0.32553191489361705,-0.02553191489361702
3575.757575757576,0.298936170212766,-0.035106382978723406,-0.21170212765957447
3585.8585858585857,0.21808510638297873,0.2670212765957447,-0.3627659574468085
3595.959595959596,0.07340425531914893,0.5117021276595745,-0.4340425531914894
3606.060606060606,-0.04468085106382979,0.5989361702127659,-0.44893617021276594
3616.161616161616,-0.1,0.548936170212766,-0.44574468085106383
3626.2626262626263,-0.00851063829787234,0.4148936170212766,-0.35106382978723405
3636.3636363636365,0.07765957446808511,0.2404255319148936,-0.22021276595744682
3646.4646464646466,0.011702127659574468,0.1702127659574468,-0.15638297872340426
3656.5656565656564,-0.06914893617021277,0.1723404255319149,-0.09361702127659574
3666.6666666666665,-0.12340425531914893,0.19042553191489361,-0.00425531914893617
3676.7676767676767,-0.16063829787234044,0.2074468085106383,0.10106382978723404
3686.868686868687,-0.18829787234042553,0.17553191489361702,0.20851063829787234
3696.969696969697,-0.2531914893617021,0.1574468085106383,0.2542553191489362
3707.070707070707,-0.5148936170212766,0.2542553191489362,0.13085106382978723
3717.1717171717173,-0.902127659574468,0.43617021276595747,-0.10319148936170212
3727.272727272727,-1.2617021276595746,0.5957446808510638,-0.2957446808510638
3737.373737373737,-1.2468085106382978,0.5819148936170213,-0.275531914893617
3747.4747474747473,-0.7510638297872341,0.33191489361702126,-0.002127659574468085
3757.5757575757575,0.17553191489361702,-0.06808510638297872,0.3180851063829787
3767.6767676767677,1.245744680851064,-0.30319148936170215,0.4946808510638298
3777.777777777778,2.032978723404255,-0.19893617021276597,0.5085106382978724
3787.878787878788,2.220212765957447,0.08297872340425531,0.4723404255319149
3797.9797979797977,1.5191489361702128,0.5627659574468085,0.1127659574468085
3808.0808080808083,0.5797872340425532,0.973404255319149,-0.5382978723404256
3818.181818181818,-0.33404255319148934,1.2606382978723405,-1.0851063829787233
3828.282828282828,-0.9468085106382979,1.3340425531914895,-1.3659574468085107
3838.3838383838383,-1.2680851063829788,1.3,-1.4127659574468086
3848.4848484848485,-1.2553191489361701,1.2191489361702128,-1.3957446808510638
3858.5858585858587,-1.2585106382978724,1.251063829787234,-1.4904255319148936
3868.6868686868684,-1.4287234042553192,1.4797872340425533,-1.6904255319148935
3878.787878787879,-1.4425531914893617,1.6627659574468086,-1.7287234042553192
3888.8888888888887,-1.2925531914893618,1.6457446808510638,-1.5404255319148936
3898.989898989899,-0.8159574468085107,1.4595744680851064,-1.1872340425531915
3909.090909090909,-0.1148936170212766,1.151063829787234,-0.776595744680851
3919.191919191919,0.5680851063829787,0.7925531914893617,-0.4648936170212766
3929.2929292929293,0.8702127659574468,0.5425531914893617,-0.2957446808510638
3939.3939393939395,0.9617021276595744,0.3372340425531915,-0.1
3949.4949494949497,1.102127659574468,0.23617021276595745,-0.011702127659574468
3959.5959595959594,1.1808510638297873,0.35,-0.1351063829787234
3969.6969696969695,1.3574468085106384,0.5063829787234042,-0.30851063829787234
3979.7979797979797,1.4329787234042553,0.5936170212765958,-0.3393617021276596
3989.89898989899,1.0765957446808512,0.5989361702127659,-0.20212765957446807
4000,0.5308510638297872,0.597872340425532,-0.06702127659574468
4010.10101010101,0.10425531914893617,0.6638297872340425,0.002127659574468085
4020.2020202020203,-0.20425531914893616,0.7787234042553192,-0.12659574468085105
4030.3030303030305,-0.3276595744680851,0.7978723404255319,-0.37872340425531914
4040.40404040404,-0.26063829787234044,0.6840425531914893,-0.5957446808510638
4050.5050505050503,0.05425531914893617,0.5127659574468085,-0.6308510638297873
4060.6060606060605,0.575531914893617,0.33297872340425533,-0.2776595744680851
4070.7070707070707,0.9414893617021277,0.11914893617021277,0.4627659574468085
4080.808080808081,0.8180851063829787,-0.05531914893617021,1.2659574468085106
4090.909090909091,0.4329787234042553,-0.17446808510638298,1.7042553191489362
4101.010101010101,0.09680851063829787,-0.26276595744680853,1.7436170212765958
4111.111111111111,-0.013829787234042552,-0.4117021276595745,1.5085106382978724
4121.212121212121,0.08723404255319149,-0.6117021276595744,1.0893617021276596
4131.313131313132,0.42659574468085104,-0.8468085106382979,0.8074468085106383
4141.414141414141,0.774468085106383,-1.0585106382978724,0.8712765957446809
4151.515151515152,0.7606382978723404,-1.1106382978723404,0.8946808510638298
4161.616161616162,0.6680851063829787,-0.997872340425532,0.7702127659574468
4171.717171717171,0.44468085106382976,-0.7457446808510638,0.4957446808510638
4181.818181818182,0.19680851063829788,-0.425531914893617,0.16702127659574467
4191.919191919192,0.09680851063829787,-0.2723404255319149,0.1351063829787234
4202.020202020202,-0.07765957446808511,-0.2925531914893617,0.2393617021276596
4212.121212121212,-0.2765957446808511,-0.4031914893617021,0.24893617021276596
4222.222222222223,-0.3372340425531915,-0.5212765957446809,0.11382978723404255
4232.323232323232,-0.3851063829787234,-0.5446808510638298,-0.1819148936170213
4242.424242424242,-0.2968085106382979,-0.4925531914893617,-0.4276595744680851
4252.525252525253,-0.28404255319148936,-0.39787234042553193,-0.5127659574468085
4262.626262626262,-0.1797872340425532,-0.32978723404255317,-0.37127659574468086
4272.727272727273,-0.07553191489361702,-0.2925531914893617,-0.027659574468085105
4282.828282828283,-0.15531914893617021,-0.24468085106382978,0.2553191489361702
4292.929292929293,-0.2404255319148936,-0.30531914893617024,0.4542553191489362
4303.030303030303,-0.49148936170212765,-0.44574468085106383,0.4829787234042553
4313.131313131313,-0.7840425531914894,-0.5425531914893617,0.4031914893617021
4323.232323232323,-0.9617021276595744,-0.5074468085106383,0.33297872340425533
4333.333333333333,-0.8680851063829788,-0.39893617021276595,0.33085106382978724
4343.434343434344,-0.7691489361702127,-0.21170212765957447,0.27872340425531916
4353.535353535353,-0.6223404255319149,-0.06595744680851064,0.2372340425531915
4363.636363636364,-0.41595744680851066,-0.1148936170212766,0.3904255319148936
4373.737373737374,-0.21595744680851064,-0.35212765957446807,0.6691489361702128
4383.838383838383,0.002127659574468085,-0.6680851063829787,0.898936170212766
4393.939393939394,0.26382978723404255,-0.9606382978723405,1.0191489361702128
4404.040404040404,0.19574468085106383,-1.0851063829787233,0.9053191489361702
4414.141414141414,-0.13829787234042554,-1.0074468085106383,0.6925531914893617
4424.242424242424,-0.5829787234042553,-0.8031914893617021,0.5393617021276595
4434.343434343435,-0.8595744680851064,-0.5776595744680851,0.5425531914893617
4444.444444444444,-0.9478723404255319,-0.3904255319148936,0.648936170212766
4454.545454545454,-0.8127659574468085,-0.34574468085106386,0.7978723404255319
4464.646464646465,-0.5478723404255319,-0.4734042553191489,0.9148936170212766
4474.747474747474,-0.40106382978723404,-0.6457446808510638,0.8829787234042553
4484.848484848485,-0.3617021276595745,-0.7606382978723404,0.7712765957446809
4494.949494949495,-0.3553191489361702,-0.7351063829787234,0.6702127659574468
4505.050505050505,-0.4978723404255319,-0.5819148936170213,0.597872340425532
4515.151515151515,-0.6861702127659575,-0.46808510638297873,0.6202127659574468
4525.252525252525,-0.9351063829787234,-0.4776595744680851,0.6212765957446809
4535.353535353535,-1.1372340425531915,-0.6085106382978723,0.4968085106382979
4545.454545454545,-1.0329787234042553,-0.7085106382978723,0.4053191489361702
4555.555555555556,-0.723404255319149,-0.5957446808510638,0.324468085106383
4565.656565656565,-0.1,-0.3180851063829787,0.33404255319148934
4575.757575757576,0.4808510638297872,-0.07553191489361702,0.48829787234042554
4585.858585858586,0.5042553191489362,0,0.6723404255319149
4595.959595959596,-0.7531914893617021,0.036170212765957444,0.17872340425531916
4606.060606060606,-0.7446808510638298,-0.31382978723404253,-0.08404255319148936
4616.161616161617,-0.225531914893617,-0.5521276595744681,0.16489361702127658
4626.262626262626,0.4851063829787234,-0.4819148936170213,0.4095744680851064
4636.363636363636,0.5414893617021277,-0.23829787234042554,0.4340425531914894
4646.464646464647,0.3819148936170213,-0.15531914893617021,0.3840425531914894
4656.565656565656,0.37340425531914895,-0.19148936170212766,0.31063829787234043
4666.666666666667,0.42659574468085104,-0.2776595744680851,0.23085106382978723
4676.767676767677,0.3446808510638298,-0.36914893617021277,0.24361702127659574
4686.868686868687,0.13404255319148936,-0.4053191489361702,0.3425531914893617
4696.969696969697,0.2148936170212766,-0.4595744680851064,0.5904255319148937
4707.070707070707,0.14468085106382977,-0.49148936170212765,0.7159574468085106
4717.171717171717,-0.16063829787234044,-0.4946808510638298,0.5648936170212766
4727.272727272727,-0.474468085106383,-0.48617021276595745,0.37872340425531914
4737.373737373738,-0.8329787234042553,-0.44361702127659575,0.28085106382978725
4747.474747474747,-0.9638297872340426,-0.5159574468085106,0.3659574468085106
4757.575757575758,-0.9202127659574468,-0.7425531914893617,0.5351063829787234
4767.676767676768,-0.7606382978723404,-1.0904255319148937,0.6212765957446809
4777.777777777777,-0.498936170212766,-1.4936170212765958,0.6595744680851063
4787.878787878788,-0.28936170212765955,-1.8191489361702127,0.6946808510638298
4797.979797979798,-0.22446808510638297,-1.9180851063829787,0.7659574468085106
4808.080808080808,-0.41914893617021276,-1.8180851063829788,0.8489361702127659
4818.181818181818,-0.5989361702127659,-1.7553191489361701,0.9872340425531915
4828.282828282829,-0.7170212765957447,-1.7521276595744681,1.001063829787234
4838.383838383838,-0.7861702127659574,-1.774468085106383,0.7425531914893617
4848.484848484848,-0.7095744680851064,-1.8053191489361702,0.3638297872340426
4858.585858585859,-0.46702127659574466,-1.774468085106383,0.0627659574468085
4868.686868686868,-0.0574468085106383,-1.7808510638297872,0.006382978723404255
4878.787878787879,0.21382978723404256,-1.8265957446808512,0.07234042553191489
4888.888888888889,0.25,-1.875531914893617,0.11595744680851064
4898.989898989899,0.30851063829787234,-1.926595744680851,0.20106382978723406
4909.090909090909,0.3893617021276596,-1.925531914893617,0.3191489361702128
4919.191919191919,0.31382978723404253,-1.848936170212766,0.3574468085106383
4929.292929292929,0.20851063829787234,-1.7521276595744681,0.36914893617021277
4939.393939393939,0.02872340425531915,-1.6563829787234043,0.3276595744680851
4949.49494949495,-0.13617021276595745,-1.6127659574468085,0.2404255319148936
4959.595959595959,-0.1723404255319149,-1.5872340425531914,0.21808510638297873
4969.69696969697,-0.2691489361702128,-1.5170212765957447,0.24893617021276596
4979.79797979798,-0.5542553191489362,-1.424468085106383,0.3202127659574468
4989.898989898989,-1.0553191489361702,-1.3468085106382979,0.35
5000,-1.5925531914893618,-1.3542553191489362,0.32872340425531915
5010,-1.9372340425531915,-1.445744680851064,0.35
5020,-2.0340425531914894,-1.5904255319148937,0.4531914893617021
5030,-1.9063829787234043,-1.7670212765957447,0.5840425531914893
5040,-1.5840425531914895,-1.9617021276595745,0.6861702127659575
5050,-1.1117021276595744,-2.175531914893617,0.7755319148936171
5060,-0.6319148936170212,-2.4117021276595745,0.9425531914893617
5070,-0.4819148936170213,-2.5691489361702127,1.0819148936170213
5080,-0.3925531914893617,-2.5914893617021275,1.1340425531914893
5090,-0.3372340425531915,-2.4468085106382977,1.0361702127659576
5100,-0.26170212765957446,-2.1882978723404256,0.8053191489361702
5110,-0.15319148936170213,-1.896808510638298,0.55
5120,-0.05106382978723404,-1.6553191489361703,0.3797872340425532
5130,0.09574468085106383,-1.4776595744680852,0.3553191489361702
5140,0.1,-1.3372340425531914,0.3893617021276596
5150,-0.047872340425531915,-1.2351063829787234,0.41382978723404257
5160,-0.24574468085106382,-1.2180851063829787,0.41382978723404257
5170,-0.4351063829787234,-1.2627659574468084,0.42127659574468085
5180,-0.6670212765957447,-1.3329787234042554,0.4
5190,-0.823404255319149,-1.4159574468085105,0.43617021276595747
5200,-0.8882978723404256,-1.4414893617021276,0.5382978723404256
5210,-0.926595744680851,-1.426595744680851,0.6819148936170213
5220,-1.0191489361702128,-1.4138297872340426,0.776595744680851
5230,-1.1393617021276596,-1.4202127659574468,0.7585106382978724
5240,-1.1659574468085105,-1.4287234042553192,0.6446808510638298
5250,-1.0382978723404255,-1.3670212765957446,0.5106382978723404
5260,-0.8840425531914894,-1.2425531914893617,0.3074468085106383
5270,-0.5351063829787234,-1.1106382978723404,0.10106382978723404
5280,-0.11382978723404255,-0.9723404255319149,0.02021276595744681
5290,0.02446808510638298,-0.8787234042553191,0.039361702127659576
5300,-0.026595744680851064,-0.798936170212766,0.10531914893617021
5310,-0.05,-0.65,0.17659574468085107
5320,-0.14680851063829786,-0.4542553191489362,0.13829787234042554
5330,-0.11595744680851064,-0.35425531914893615,0.06170212765957447
5340,0.026595744680851064,-0.3393617021276596,0.1
5350,0.0797872340425532,-0.3595744680851064,0.24893617021276596
5360,0.19148936170212766,-0.44574468085106383,0.4819148936170213
5370,0.2936170212765957,-0.48723404255319147,0.6127659574468085
5380,0.35212765957446807,-0.42340425531914894,0.575531914893617
5390,0.31382978723404253,-0.23404255319148937,0.4425531914893617
5400,0.08723404255319149,0.05531914893617021,0.1595744680851064
5410,-0.10531914893617021,0.4340425531914894,-0.17659574468085107
5420,-0.22659574468085106,0.8457446808510638,-0.4308510638297872
5430,-0.18723404255319148,1.1861702127659575,-0.5138297872340426
5440,-0.047872340425531915,1.524468085106383,-0.45851063829787236
5450,-0.035106382978723406,1.9287234042553192,-0.5031914893617021
5460,-0.08297872340425531,2.35,-0.6531914893617021
5470,-0.02553191489361702,2.6648936170212765,-0.8106382978723404
5480,0.15851063829787235,2.8053191489361704,-0.9680851063829787
5490,0.5648936170212766,2.8085106382978724,-1.0968085106382979
5500,1.146808510638298,2.7893617021276595,-1.1914893617021276
5510,1.3553191489361702,2.820212765957447,-1.2904255319148936
5520,1.1840425531914893,2.7882978723404257,-1.396808510638298
5530,1.0276595744680852,2.6425531914893616,-1.4925531914893617
5540,0.9329787234042554,2.472340425531915,-1.524468085106383
5550,0.9180851063829787,2.3712765957446806,-1.4563829787234042
5560,1.0063829787234042,2.318085106382979,-1.25
5570,1.023404255319149,2.225531914893617,-0.9404255319148936
5580,0.8691489361702127,2.0617021276595744,-0.6861702127659575
5590,0.823404255319149,1.8648936170212767,-0.4946808510638298
5600,0.8425531914893617,1.7170212765957447,-0.37340425531914895
5610,0.8968085106382979,1.626595744680851,-0.3446808510638298
5620,0.7829787234042553,1.6351063829787233,-0.4563829787234043
5630,0.5617021276595745,1.6946808510638298,-0.6617021276595745
5640,0.46595744680851064,1.75,-0.8925531914893617
5650,0.5638297872340425,1.8436170212765957,-1.097872340425532
5660,0.8287234042553191,1.998936170212766,-1.2329787234042553
5670,0.9819148936170212,2.1840425531914893,-1.274468085106383
5680,0.8446808510638298,2.347872340425532,-1.196808510638298
5690,0.5319148936170213,2.4436170212765957,-1.0797872340425532
5700,0.15106382978723404,2.4659574468085106,-1.05
5710,-0.1574468085106383,2.5351063829787233,-1.2053191489361703
5720,-0.37446808510638296,2.704255319148936,-1.4436170212765957
5730,-0.49042553191489363,2.8787234042553194,-1.5904255319148937
5740,-0.40106382978723404,2.9127659574468083,-1.4659574468085106
5750,-0.33085106382978724,2.793617021276596,-1.2776595744680852
5760,-0.25957446808510637,2.603191489361702,-1.102127659574468
5770,0.029787234042553193,2.3117021276595744,-0.8361702127659575
5780,0.39787234042553193,1.9797872340425533,-0.6414893617021277
5790,0.5053191489361702,1.7904255319148936,-0.6308510638297873
5800,0.37340425531914895,1.6819148936170212,-0.5957446808510638
5810,0.1351063829787234,1.5617021276595744,-0.4148936170212766
5820,-0.030851063829787233,1.396808510638298,-0.07553191489361702
5830,0.18404255319148935,1.127659574468085,0.37446808510638296
5840,0.24361702127659574,0.9404255319148936,0.624468085106383
5850,0.18936170212765957,0.8276595744680851,0.7244680851063829
5860,0.1425531914893617,0.7212765957446808,0.8053191489361702
5870,0.011702127659574468,0.6148936170212767,0.8042553191489362
5880,-0.13936170212765958,0.46914893617021275,0.7287234042553191
5890,-0.039361702127659576,0.2,0.6563829787234042
5900,0.13936170212765958,-0.06170212765957447,0.574468085106383
5910,0.3393617021276596,-0.2170212765957447,0.5180851063829788
5920,0.6797872340425531,-0.3,0.6202127659574468
5930,0.8042553191489362,-0.3404255319148936,0.8031914893617021
5940,0.6585106382978724,-0.44042553191489364,0.9478723404255319
5950,0.5074468085106383,-0.5840425531914893,0.9234042553191489
5960,0.2404255319148936,-0.5946808510638298,0.7319148936170212
5970,-0.05425531914893617,-0.4776595744680851,0.5297872340425532
5980,-0.1702127659574468,-0.32340425531914896,0.498936170212766
5990,-0.22127659574468084,-0.15851063829787235,0.5478723404255319
6000,-0.18829787234042553,-0.05638297872340425,0.6223404255319149
6010.10101010101,-0.2393617021276596,-0.036170212765957444,0.6553191489361702
6020.20202020202,-0.3861702127659574,-0.15106382978723404,0.5723404255319149
6030.30303030303,-0.3670212765957447,-0.3404255319148936,0.44468085106382976
6040.404040404041,-0.3159574468085106,-0.474468085106383,0.2648936170212766
6050.50505050505,-0.2851063829787234,-0.5425531914893617,0.01702127659574468
6060.606060606061,-0.15531914893617021,-0.5319148936170213,-0.2053191489361702
6070.707070707071,-0.009574468085106383,-0.44680851063829785,-0.34574468085106386
6080.80808080808,0.06914893617021277,-0.3574468085106383,-0.39680851063829786
6090.909090909091,0.21063829787234042,-0.38085106382978723,-0.2542553191489362
6101.010101010101,0.33085106382978724,-0.5904255319148937,0.02553191489361702
6111.111111111111,0.28297872340425534,-0.8223404255319149,0.24680851063829787
6121.212121212121,0.14468085106382977,-0.9191489361702128,0.3680851063829787
6131.313131313132,-0.027659574468085105,-0.9074468085106383,0.44574468085106383
6141.414141414141,-0.23404255319148937,-0.8382978723404255,0.48936170212765956
6151.515151515152,-0.3425531914893617,-0.7882978723404256,0.5691489361702128
6161.616161616162,-0.3872340425531915,-0.8031914893617021,0.7372340425531915
6171.717171717171,-0.3680851063829787,-0.9,0.9287234042553192
6181.818181818182,-0.31063829787234043,-1.0053191489361701,1
6191.919191919192,-0.28404255319148936,-1.05,0.8531914893617021
6202.020202020202,-0.20638297872340425,-1.0436170212765958,0.5319148936170213
6212.121212121212,-0.09042553191489362,-0.9872340425531915,0.1946808510638298
6222.222222222223,-0.027659574468085105,-0.9351063829787234,-0.02553191489361702
6232.323232323232,-0.027659574468085105,-0.9063829787234042,-0.1074468085106383
6242.424242424242,-0.06914893617021277,-0.8595744680851064,-0.1127659574468085
6252.525252525253,-0.125531914893617,-0.8180851063829787,-0.06063829787234042
6262.626262626262,-0.09893617021276596,-0.7904255319148936,0.07872340425531915
6272.727272727273,0.023404255319148935,-0.8138297872340425,0.20212765957446807
6282.828282828283,0.17127659574468085,-0.8765957446808511,0.2074468085106383
6292.929292929293,0.2734042553191489,-0.926595744680851,0.07446808510638298
6303.030303030303,0.2521276595744681,-0.9404255319148936,-0.0574468085106383
6313.131313131313,0.13404255319148936,-0.9085106382978724,-0.0925531914893617
6323.232323232323,-0.05851063829787234,-0.8574468085106383,-0.0627659574468085
6333.333333333333,-0.298936170212766,-0.7680851063829788,-0.010638297872340425
6343.434343434344,-0.5351063829787234,-0.6638297872340425,0.030851063829787233
6353.535353535353,-0.6382978723404256,-0.6148936170212767,0.05531914893617021
6363.636363636364,-0.5797872340425532,-0.6319148936170212,0.0627659574468085
6373.737373737374,-0.4276595744680851,-0.6957446808510638,0.14680851063829786
6383.838383838383,-0.3393617021276596,-0.8042553191489362,0.25957446808510637
6393.939393939394,-0.3202127659574468,-0.9074468085106383,0.3574468085106383
6404.040404040404,-0.28404255319148936,-1,0.4595744680851064
6414.141414141414,-0.39787234042553193,-1.0382978723404255,0.475531914893617
6424.242424242424,-0.5627659574468085,-1.0095744680851064,0.3595744680851064
6434.343434343435,-0.7574468085106383,-0.926595744680851,0.16914893617021276
6444.444444444444,-0.8276595744680851,-0.8648936170212767,0.006382978723404255
6454.545454545454,-0.7297872340425532,-0.8542553191489362,-0.05531914893617021
6464.646464646465,-0.5393617021276595,-0.8638297872340426,-0.06489361702127659
6474.747474747474,-0.4319148936170213,-0.847872340425532,-0.04468085106382979
6484.848484848485,-0.524468085106383,-0.7680851063829788,-0.027659574468085105
6494.949494949495,-0.7382978723404255,-0.6946808510638298,-0.018085106382978722
6505.050505050505,-0.9702127659574468,-0.701063829787234,-0.052127659574468084
6515.151515151515,-0.997872340425532,-0.8031914893617021,-0.10425531914893617
6525.252525252525,-0.9989361702127659,-0.8829787234042553,-0.22127659574468084
6535.353535353535,-0.9861702127659574,-0.9340425531914893,-0.34361702127659577
6545.454545454545,-0.8819148936170212,-0.9170212765957447,-0.33085106382978724
6555.555555555556,-0.7882978723404256,-0.7787234042553192,-0.27872340425531916
6565.656565656565,-0.7180851063829787,-0.573404255319149,-0.22234042553191488
6575.757575757576,-0.6808510638297872,-0.38085106382978723,-0.20319148936170212
6585.858585858586,-0.6340425531914894,-0.28297872340425534,-0.2276595744680851
6595.959595959596,-0.5234042553191489,-0.2776595744680851,-0.21914893617021278
6606.060606060606,-0.28936170212765955,-0.3404255319148936,-0.1276595744680851
6616.161616161617,-0.03723404255319149,-0.4117021276595745,0.04680851063829787
6626.262626262626,0.06808510638297872,-0.451063829787234,0.16702127659574467
6636.363636363636,0.07127659574468086,-0.48936170212765956,0.1946808510638298
6646.464646464647,-0.015957446808510637,-0.4765957446808511,0.1776595744680851
6656.565656565656,-0.18723404255319148,-0.40638297872340423,0.1202127659574468
6666.666666666667,-0.29148936170212764,-0.33191489361702126,0.05531914893617021
6676.767676767677,-0.23297872340425532,-0.2574468085106383,0.07553191489361702
6686.868686868687,-0.02872340425531915,-0.18723404255319148,0.15319148936170213
6696.969696969697,0.1702127659574468,-0.1276595744680851,0.18936170212765957
6707.070707070707,0.3191489361702128,-0.13404255319148936,0.14042553191489363
6717.171717171717,0.4797872340425532,-0.1776595744680851,0.11702127659574468
6727.272727272727,0.5638297872340425,-0.19361702127659575,0.12978723404255318
6737.373737373738,0.45851063829787236,-0.17446808510638298,0.1946808510638298
6747.474747474747,0.25,-0.11702127659574468,0.22340425531914893
6757.575757575758,0.15319148936170213,-0.0425531914893617,0.19787234042553192
6767.676767676768,0.21382978723404256,0.03297872340425532,0.10851063829787234
6777.777777777777,0.39148936170212767,0.16276595744680852,-0.09361702127659574
6787.878787878788,0.5531914893617021,0.3,-0.33191489361702126
6797.979797979798,0.6127659574468085,0.33404255319148934,-0.4223404255319149
6808.080808080808,0.6297872340425532,0.2851063829787234,-0.37872340425531914
6818.181818181818,0.6095744680851064,0.2765957446808511,-0.28829787234042553
6828.282828282829,0.43829787234042555,0.3638297872340426,-0.26595744680851063
6838.383838383838,0.20425531914893616,0.4925531914893617,-0.30425531914893617
6848.484848484848,-0.06595744680851064,0.6074468085106383,-0.35
6858.585858585859,-0.324468085106383,0.6372340425531915,-0.4021276595744681
6868.686868686868,-0.46382978723404256,0.6404255319148936,-0.42340425531914894
6878.787878787879,-0.674468085106383,0.6617021276595745,-0.5425531914893617
6888.888888888889,-0.8180851063829787,0.5957446808510638,-0.6414893617021277
6898.989898989899,-0.8170212765957446,0.4627659574468085,-0.6085106382978723
6909.090909090909,-0.6074468085106383,0.29148936170212764,-0.4
6919.191919191919,-0.26382978723404255,0.11063829787234042,-0.08404255319148936
6929.292929292929,0.05319148936170213,-0.027659574468085105,0.21063829787234042
6939.393939393939,0.30106382978723406,-0.11702127659574468,0.3723404255319149
6949.49494949495,0.46595744680851064,-0.17872340425531916,0.41382978723404257
6959.595959595959,0.4117021276595745,-0.17872340425531916,0.3148936170212766
6969.69696969697,0.33297872340425533,-0.20106382978723406,0.15531914893617021
6979.79797979798,0.30531914893617024,-0.24574468085106382,0.02553191489361702
6989.898989898989,0.37340425531914895,-0.30638297872340425,-0.03723404255319149
7000,0.41702127659574467,-0.3074468085106383,-0.05106382978723404
7010,0.46382978723404256,-0.2297872340425532,-0.059574468085106386
7020,0.5414893617021277,-0.10957446808510639,-0.1148936170212766
7030,0.5702127659574469,0.059574468085106386,-0.2702127659574468
7040,0.4851063829787234,0.23297872340425532,-0.498936170212766
7050,0.39787234042553193,0.3372340425531915,-0.6542553191489362
7060,0.4340425531914894,0.34361702127659577,-0.6436170212765957
7070,0.4851063829787234,0.30851063829787234,-0.475531914893617
7080,0.4595744680851064,0.3382978723404255,-0.2872340425531915
7090,0.3904255319148936,0.4829787234042553,-0.16914893617021276
7100,0.31382978723404253,0.7510638297872341,-0.15
7110,0.22234042553191488,1.098936170212766,-0.2074468085106383
7120,0.28936170212765955,1.3861702127659574,-0.275531914893617
7130,0.39574468085106385,1.6159574468085107,-0.37446808510638296
7140,0.39680851063829786,1.7968085106382978,-0.5425531914893617
7150,0.3851063829787234,1.898936170212766,-0.6638297872340425
7160,0.3638297872340426,1.9585106382978723,-0.7180851063829787
7170,0.26170212765957446,2.0138297872340427,-0.7138297872340426
7180,0.15106382978723404,2.0361702127659576,-0.624468085106383
7190,0.10212765957446808,1.9638297872340424,-0.4765957446808511
7200,0.06063829787234042,1.8148936170212766,-0.3840425531914894
7210,0.14893617021276595,1.602127659574468,-0.2957446808510638
7220,0.3893617021276596,1.3414893617021277,-0.17659574468085107
7230,0.6393617021276595,1.147872340425532,-0.02127659574468085
7240,0.652127659574468,1.0212765957446808,0.08829787234042553
7250,0.4851063829787234,0.9180851063829787,0.13404255319148936
7260,0.42446808510638295,0.824468085106383,0.2127659574468085
7270,0.4276595744680851,0.7638297872340426,0.24893617021276596
7280,0.41382978723404257,0.7734042553191489,0.2553191489361702
7290,0.35638297872340424,0.8,0.17340425531914894
7300,0.14468085106382977,0.7617021276595745,-0.02446808510638298
7310,-0.09680851063829787,0.5702127659574469,-0.1702127659574468
7320,-0.39361702127659576,0.32553191489361705,-0.21808510638297873
7330,-0.6180851063829788,0.14680851063829786,-0.23191489361702128
7340,-0.6585106382978724,0.09468085106382979,-0.2148936170212766
7350,-0.5712765957446808,0.10638297872340426,-0.19148936170212766
7360,-0.5404255319148936,0.10425531914893617,-0.20319148936170212
7370,-0.4127659574468085,0.036170212765957444,-0.1202127659574468
7380,-0.11170212765957446,-0.14574468085106382,0.1127659574468085
7390,-0.12127659574468085,-0.2670212765957447,0.17446808510638298
7400,-0.3797872340425532,-0.2521276595744681,-0.0010638297872340426
7410,-0.6148936170212767,-0.23297872340425532,-0.1819148936170213
7420,-0.6776595744680851,-0.2723404255319149,-0.2351063829787234
7430,-0.6446808510638298,-0.3659574468085106,-0.1925531914893617
7440,-0.45851063829787236,-0.4787234042553192,-0.059574468085106386
7450,-0.11808510638297873,-0.5723404255319149,0.14468085106382977
7460,0.12234042553191489,-0.6457446808510638,0.2776595744680851
7470,0.1351063829787234,-0.701063829787234,0.2968085106382979
7480,0.06063829787234042,-0.7319148936170212,0.32659574468085106
7490,-0.2404255319148936,-0.624468085106383,0.30106382978723406
7500,-0.7893617021276595,-0.4276595744680851,0.1074468085106383
7510,-1.2776595744680852,-0.2648936170212766,-0.06595744680851064
7520,-1.476595744680851,-0.24148936170212765,-0.1074468085106383
7530,-1.5319148936170213,-0.2968085106382979,-0.12659574468085105
7540,-1.4393617021276597,-0.33085106382978724,-0.12978723404255318
7550,-1.1734042553191488,-0.30531914893617024,-0.1148936170212766
7560,-0.9617021276595744,-0.22340425531914893,-0.07872340425531915
7570,-0.8180851063829787,-0.22021276595744682,0.005319148936170213
7580,-0.8382978723404255,-0.3446808510638298,0.06808510638297872
7590,-0.9638297872340426,-0.5542553191489362,0.11808510638297873
7600,-1.0617021276595744,-0.7425531914893617,0.23191489361702128
7610,-1.054255319148936,-0.774468085106383,0.3882978723404255
7620,-0.9351063829787234,-0.6797872340425531,0.48829787234042554
7630,-0.7595744680851064,-0.5585106382978723,0.4627659574468085
7640,-0.5819148936170213,-0.5893617021276596,0.31382978723404253
7650,-0.5521276595744681,-0.7914893617021277,0.22446808510638297
7660,-0.5776595744680851,-1.048936170212766,0.3148936170212766
7670,-0.625531914893617,-1.226595744680851,0.5414893617021277
7680,-0.6936170212765957,-1.2393617021276595,0.7159574468085106
7690,-0.723404255319149,-1.1457446808510638,0.7797872340425532
7700,-0.6425531914893617,-1.0393617021276595,0.7074468085106383
7710,-0.4031914893617021,-0.8489361702127659,0.5148936170212766
7720,0.019148936170212766,-0.5372340425531915,0.28404255319148936
7730,0.4351063829787234,-0.22127659574468084,0.13085106382978723
7740,0.6425531914893617,-0.09361702127659574,0.1478723404255319
7750,0.7265957446808511,-0.2,0.3127659574468085
7760,0.774468085106383,-0.41808510638297874,0.46063829787234045
7770,0.7212765957446808,-0.5670212765957446,0.4723404255319149
7780,0.5787234042553191,-0.5925531914893617,0.48829787234042554
7790,0.35638297872340424,-0.597872340425532,0.47127659574468084
7800,0.11063829787234042,-0.6063829787234043,0.4
7810,-0.10957446808510639,-0.6276595744680851,0.18617021276595744
7820,-0.22446808510638297,-0.6042553191489362,-0.11914893617021277
7830,0.047872340425531915,-0.4968085106382979,-0.3670212765957447
7840,0.5808510638297872,-0.2531914893617021,-0.502127659574468
7850,1.102127659574468,-0.00425531914893617,-0.3872340425531915
7860,1.3797872340425532,0.1,-0.009574468085106383
7870,1.2595744680851064,0.10212765957446808,0.38085106382978723
7880,0.8202127659574469,0.10106382978723404,0.5212765957446809
7890,0.30425531914893617,0.1276595744680851,0.5202127659574468
7900,-0.20638297872340425,0.19361702127659575,0.34574468085106386
7910,-0.5053191489361702,0.2691489361702128,0.05638297872340425
7920,-0.6063829787234043,0.3606382978723404,-0.251063829787234
7930,-0.5893617021276596,0.4308510638297872,-0.5542553191489362
7940,-0.21595744680851064,0.44680851063829785,-0.6617021276595745
7950,0.17340425531914894,0.425531914893617,-0.5585106382978723
7960,0.3393617021276596,0.29148936170212764,-0.33085106382978724
7970,0.597872340425532,0.08085106382978724,0.01276595744680851
7980,0.6425531914893617,0.00851063829787234,0.2372340425531915
7990,0.7106382978723405,0.01702127659574468,0.275531914893617
8000,0.9,0.09361702127659574,0.31063829787234043
8010,0.6925531914893617,0.2351063829787234,0.2691489361702128
8020,0.3180851063829787,0.2542553191489362,0.19148936170212766
8030,0.0797872340425532,0.17340425531914894,0.20638297872340425
8040,-0.2765957446808511,0.1595744680851064,0.12446808510638298
8050,-0.44574468085106383,0.10638297872340426,0.030851063829787233
8060,-0.33617021276595743,0.05638297872340425,-0.019148936170212766
8070,-0.11808510638297873,0.023404255319148935,-0.10957446808510639
8080,0.2074468085106383,-0.11382978723404255,-0.15425531914893617
8090,0.6319148936170212,-0.4074468085106383,-0.09787234042553192
8100,0.7563829787234042,-0.6861702127659575,-0.02553191489361702
8110,0.5010638297872341,-0.7957446808510639,-0.06914893617021277
8120,0.21382978723404256,-0.7648936170212766,-0.09042553191489362
8130,-0.011702127659574468,-0.6329787234042553,-0.10425531914893617
8140,-0.11808510638297873,-0.4808510638297872,-0.12978723404255318
8150,-0.06382978723404255,-0.39148936170212767,-0.10106382978723404
8160,0.03297872340425532,-0.39680851063829786,-0.06489361702127659
8170,0.14680851063829786,-0.475531914893617,-0.011702127659574468
8180,0.3,-0.5936170212765958,0.0574468085106383
8190,0.44042553191489364,-0.6425531914893617,0.15425531914893617
8200,0.4957446808510638,-0.6223404255319149,0.21914893617021278
8210,0.4946808510638298,-0.5957446808510638,0.3202127659574468
8220,0.3904255319148936,-0.5797872340425532,0.41595744680851066
8230,0.1819148936170213,-0.5829787234042553,0.4329787234042553
8240,0.02446808510638298,-0.6138297872340426,0.39148936170212767
8250,-0.15531914893617021,-0.6053191489361702,0.23617021276595745
8260,-0.23085106382978723,-0.5776595744680851,0.018085106382978722
8270,-0.2148936170212766,-0.5191489361702127,-0.18936170212765957
8280,-0.13404255319148936,-0.4521276595744681,-0.3223404255319149
8290,0.01702127659574468,-0.3925531914893617,-0.3202127659574468
8300,0.09148936170212765,-0.34361702127659577,-0.23829787234042554
8310,0.08936170212765958,-0.3382978723404255,-0.12340425531914893
8320,0.08617021276595745,-0.3670212765957447,0.02127659574468085
8330,-0.019148936170212766,-0.37340425531914895,0.06914893617021277
8340,-0.16170212765957448,-0.3680851063829787,0.039361702127659576
8350,-0.23617021276595745,-0.39893617021276595,0.0010638297872340426
8360,-0.16595744680851063,-0.4968085106382979,-0.015957446808510637
8370,-0.03829787234042553,-0.6308510638297873,-0.01276595744680851
8380,0.03829787234042553,-0.7329787234042553,-0.039361702127659576
8390,0.0574468085106383,-0.774468085106383,-0.059574468085106386
8400,0.06489361702127659,-0.7489361702127659,-0.04468085106382979
8410,0.01702127659574468,-0.6606382978723404,0
8420,-0.06914893617021277,-0.5521276595744681,0.05638297872340425
8430,-0.10425531914893617,-0.4521276595744681,0.15638297872340426
8440,-0.14468085106382977,-0.3723404255319149,0.22021276595744682
8450,-0.2170212765957447,-0.30638297872340425,0.23404255319148937
8460,-0.2776595744680851,-0.28404255319148936,0.20851063829787234
8470,-0.33191489361702126,-0.2542553191489362,0.17872340425531916
8480,-0.35212765957446807,-0.20319148936170212,0.12872340425531914
8490,-0.3574468085106383,-0.14680851063829786,0.07872340425531915
8500,-0.30531914893617024,-0.11808510638297873,0.05425531914893617
8510,-0.16914893617021276,-0.09574468085106383,0.06170212765957447
8520,0.006382978723404255,-0.07127659574468086,0.07659574468085106
8530,0.11595744680851064,-0.05,0.059574468085106386
8540,0.15425531914893617,-0.022340425531914895,-0.0031914893617021275
8550,0.1702127659574468,0.00851063829787234,-0.07765957446808511
8560,0.14574468085106382,0.047872340425531915,-0.13085106382978723
8570,0.06914893617021277,0.1074468085106383,-0.16702127659574467
8580,-0.00425531914893617,0.17553191489361702,-0.1595744680851064
8590,-0.05638297872340425,0.23191489361702128,-0.15425531914893617
8600,-0.10212765957446808,0.2648936170212766,-0.1702127659574468
8610,-0.14361702127659576,0.25851063829787235,-0.20638297872340425
8620,-0.1723404255319149,0.21914893617021278,-0.25851063829787235
8630,-0.045744680851063826,0.1595744680851064,-0.26595744680851063
8640,0.15212765957446808,0.09680851063829787,-0.19574468085106383
8650,0.3425531914893617,0.05,-0.10957446808510639
8660,0.4946808510638298,0.03404255319148936,-0.05106382978723404
8670,0.5872340425531914,0.0627659574468085,-0.04468085106382979
8680,0.5680851063829787,0.15531914893617021,-0.08404255319148936
8690,0.47127659574468084,0.28404255319148936,-0.17340425531914894
8700,0.33297872340425533,0.425531914893617,-0.28297872340425534
8710,0.15851063829787235,0.548936170212766,-0.3882978723404255
8720,0.039361702127659576,0.6117021276595744,-0.40106382978723404
8730,0.05106382978723404,0.6127659574468085,-0.31170212765957445
8740,0.1,0.5989361702127659,-0.17872340425531916
8750,0.16702127659574467,0.5776595744680851,-0.04148936170212766
8760,0.21595744680851064,0.5574468085106383,0.06489361702127659
8770,0.18085106382978725,0.5297872340425532,0.08829787234042553
8780,0.08297872340425531,0.48936170212765956,0.05
8790,-0.015957446808510637,0.4478723404255319,-0.036170212765957444
8800,-0.04042553191489362,0.40425531914893614,-0.12659574468085105
8810,-0.04893617021276596,0.4031914893617021,-0.2553191489361702
8820,0.02872340425531915,0.41914893617021276,-0.33085106382978724
8830,0.23404255319148937,0.42340425531914894,-0.28936170212765955
8840,0.4053191489361702,0.425531914893617,-0.18936170212765957
8850,0.5085106382978724,0.3925531914893617,-0.10957446808510639
8860,0.5659574468085107,0.3393617021276596,-0.045744680851063826
8870,0.6404255319148936,0.34574468085106386,-0.005319148936170213
8880,0.6106382978723405,0.4425531914893617,0.022340425531914895
8890,0.5031914893617021,0.5202127659574468,0.026595744680851064
8900,0.33191489361702126,0.573404255319149,0
8910,0.1819148936170213,0.5968085106382979,-0.059574468085106386
8920,0.052127659574468084,0.5904255319148937,-0.10638297872340426
8930,-0.1,0.5329787234042553,-0.13191489361702127
8940,-0.2393617021276596,0.42659574468085104,-0.12446808510638298
8950,-0.3159574468085106,0.30957446808510636,-0.09148936170212765
8960,-0.35638297872340424,0.24680851063829787,-0.07659574468085106
8970,-0.3627659574468085,0.2542553191489362,-0.08404255319148936
8980,-0.3170212765957447,0.2936170212765957,-0.08829787234042553
8990,-0.24574468085106382,0.3414893617021277,-0.10425531914893617
9000,-0.17553191489361702,0.3819148936170213,-0.10957446808510639
9010.10101010101,-0.15531914893617021,0.41382978723404257,-0.09361702127659574
9020.20202020202,-0.2797872340425532,0.4574468085106383,-0.08617021276595745
9030.30303030303,-0.44893617021276594,0.48723404255319147,-0.10851063829787234
9040.40404040404,-0.6021276595744681,0.4925531914893617,-0.15319148936170213
9050.505050505051,-0.7297872340425532,0.4702127659574468,-0.22127659574468084
9060.60606060606,-0.8127659574468085,0.4340425531914894,-0.3191489361702128
9070.70707070707,-0.7829787234042553,0.40106382978723404,-0.3882978723404255
9080.808080808081,-0.6329787234042553,0.3680851063829787,-0.4648936170212766
9090.90909090909,-0.4574468085106383,0.35,-0.5521276595744681
9101.0101010101,-0.20957446808510638,0.3468085106382979,-0.5904255319148937
9111.111111111111,0.10425531914893617,0.35,-0.5446808510638298
9121.212121212122,0.3382978723404255,0.3021276595744681,-0.42127659574468085
9131.31313131313,0.44148936170212766,0.22127659574468084,-0.26170212765957446
9141.414141414141,0.3946808510638298,0.1819148936170213,-0.12446808510638298
9151.515151515152,0.19042553191489361,0.16914893617021276,-0.04893617021276596
9161.61616161616,-0.05319148936170213,0.12234042553191489,0.013829787234042552
9171.717171717171,-0.16808510638297872,0.022340425531914895,0.0574468085106383
9181.818181818182,-0.03829787234042553,-0.11914893617021277,0.10957446808510639
9191.919191919193,0.32659574468085106,-0.2968085106382979,0.22340425531914893
9202.020202020201,0.48723404255319147,-0.4127659574468085,0.28936170212765955
9212.121212121212,0.4117021276595745,-0.46170212765957447,0.2734042553191489
9222.222222222223,0.49148936170212765,-0.4978723404255319,0.28085106382978725
9232.323232323231,0.5787234042553191,-0.4787234042553192,0.21063829787234042
9242.424242424242,0.6404255319148936,-0.4351063829787234,0.03829787234042553
9252.525252525253,0.7617021276595745,-0.3638297872340426,-0.09574468085106383
9262.626262626263,0.8574468085106383,-0.28936170212765955,-0.13404255319148936
9272.727272727272,0.8457446808510638,-0.2670212765957447,-0.10851063829787234
9282.828282828283,0.7329787234042553,-0.30531914893617024,0.015957446808510637
9292.929292929293,0.498936170212766,-0.4085106382978723,0.1425531914893617
9303.030303030304,0.18617021276595744,-0.4925531914893617,0.19148936170212766
9313.131313131313,-0.09787234042553192,-0.5127659574468085,0.15531914893617021
9323.232323232323,-0.3414893617021277,-0.43617021276595747,0.0851063829787234
9333.333333333334,-0.5329787234042553,-0.31063829787234043,-0.019148936170212766
9343.434343434343,-0.6085106382978723,-0.1829787234042553,-0.1074468085106383
9353.535353535353,-0.5914893617021276,-0.06808510638297872,-0.18723404255319148
9363.636363636364,-0.49361702127659574,-0.02872340425531915,-0.2723404255319149
9373.737373737375,-0.35425531914893615,-0.029787234042553193,-0.31063829787234043
9383.838383838383,-0.3,-0.015957446808510637,-0.3393617021276596
9393.939393939394,-0.33617021276595743,-0.0010638297872340426,-0.3127659574468085
9404.040404040405,-0.3595744680851064,-0.031914893617021274,-0.23191489361702128
9414.141414141413,-0.4053191489361702,-0.0425531914893617,-0.15638297872340426
9424.242424242424,-0.3840425531914894,-0.018085106382978722,-0.02127659574468085
9434.343434343435,-0.3680851063829787,0.04042553191489362,0.20638297872340425
9444.444444444445,-0.4734042553191489,0.08085106382978724,0.4957446808510638
9454.545454545454,-0.5010638297872341,-0.01276595744680851,0.7787234042553192
9464.646464646465,-0.4542553191489362,-0.1776595744680851,0.8606382978723405
9474.747474747475,-0.4308510638297872,-0.2851063829787234,0.7212765957446808
9484.848484848484,-0.41702127659574467,-0.3,0.4563829787234043
9494.949494949495,-0.251063829787234,-0.27872340425531916,0.2372340425531915
9505.050505050505,0.0010638297872340426,-0.23829787234042554,0.02127659574468085
9515.151515151516,0.23404255319148937,-0.2148936170212766,-0.11170212765957446
9525.252525252525,0.498936170212766,-0.21808510638297873,-0.05851063829787234
9535.353535353535,0.652127659574468,-0.22234042553191488,0.12978723404255318
9545.454545454546,0.5776595744680851,-0.2521276595744681,0.3851063829787234
9555.555555555555,0.35212765957446807,-0.3382978723404255,0.5872340425531914
9565.656565656565,0.10851063829787234,-0.4329787234042553,0.6457446808510638
9575.757575757576,-0.0574468085106383,-0.4957446808510638,0.5563829787234043
9585.858585858587,-0.11914893617021277,-0.5170212765957447,0.37659574468085105
9595.959595959595,0.01702127659574468,-0.5,0.25851063829787235
9606.060606060606,0.17340425531914894,-0.4478723404255319,0.22340425531914893
9616.161616161617,0.15425531914893617,-0.40425531914893614,0.24468085106382978
9626.262626262625,0.05531914893617021,-0.3904255319148936,0.324468085106383
9636.363636363636,-0.08829787234042553,-0.39893617021276595,0.43829787234042555
9646.464646464647,-0.22872340425531915,-0.45,0.5223404255319148
9656.565656565657,-0.2946808510638298,-0.5010638297872341,0.4946808510638298
9666.666666666666,-0.26063829787234044,-0.4925531914893617,0.31170212765957445
9676.767676767677,-0.18617021276595744,-0.3840425531914894,-0.023404255319148935
9686.868686868687,-0.09574468085106383,-0.20106382978723406,-0.3904255319148936
9696.969696969696,-0.02872340425531915,-0.06170212765957447,-0.5531914893617021
9707.070707070707,0.007446808510638298,0.013829787234042552,-0.5638297872340425
9717.171717171717,0.05425531914893617,0.015957446808510637,-0.46170212765957447
9727.272727272728,0.06170212765957447,-0.01702127659574468,-0.2978723404255319
9737.373737373737,-0.022340425531914895,-0.05851063829787234,-0.15425531914893617
9747.474747474747,-0.15425531914893617,-0.09042553191489362,-0.07021276595744681
9757.575757575758,-0.2521276595744681,-0.1127659574468085,-0.04680851063829787
9767.676767676767,-0.30638297872340425,-0.15,-0.07446808510638298
9777.777777777777,-0.28297872340425534,-0.2053191489361702,-0.11702127659574468
9787.878787878788,-0.14468085106382977,-0.29148936170212764,-0.10425531914893617
9797.979797979799,-0.047872340425531915,-0.35425531914893615,-0.09148936170212765
9808.080808080807,-0.059574468085106386,-0.32978723404255317,-0.16595744680851063
9818.181818181818,-0.1425531914893617,-0.19787234042553192,-0.26170212765957446
9828.282828282829,-0.16489361702127658,-0.07021276595744681,-0.2872340425531915
9838.383838383837,-0.16276595744680852,0.026595744680851064,-0.20851063829787234
9848.484848484848,-0.08936170212765958,0.030851063829787233,-0.059574468085106386
9858.585858585859,-0.0010638297872340426,-0.05638297872340425,0.13936170212765958
9868.68686868687,0.06808510638297872,-0.16914893617021276,0.29148936170212764
9878.787878787878,0.03829787234042553,-0.2127659574468085,0.26170212765957446
9888.888888888889,-0.045744680851063826,-0.15851063829787235,0.08936170212765958
9898.9898989899,-0.05425531914893617,-0.005319148936170213,-0.1276595744680851
9909.090909090908,0.00851063829787234,0.1797872340425532,-0.26595744680851063
9919.191919191919,0.07446808510638298,0.2957446808510638,-0.2734042553191489
9929.29292929293,0.15638297872340426,0.2946808510638298,-0.19680851063829788
9939.39393939394,0.16914893617021276,0.24468085106382978,-0.12659574468085105
9949.494949494949,0.09148936170212765,0.22021276595744682,-0.1425531914893617
9959.59595959596,0.009574468085106383,0.2478723404255319,-0.19148936170212766
9969.69696969697,0.036170212765957444,0.28191489361702127,-0.1829787234042553
9979.797979797979,0.11170212765957446,0.28617021276595744,-0.12659574468085105
9989.89898989899,0.1819148936170213,0.24361702127659574,-0.059574468085106386
10000,0.2702127659574468,0.19042553191489361,0.00851063829787234
10010,0.24468085106382978,0.20638297872340425,0.047872340425531915
10020,0.2170212765957447,0.23191489361702128,0.07021276595744681
10030,0.22127659574468084,0.2680851063829787,0.1
10040,0.2925531914893617,0.3170212765957447,0.10319148936170212
10050,0.34361702127659577,0.3797872340425532,0.06808510638297872
10060,0.35,0.4531914893617021,-0.014893617021276596
10070,0.3446808510638298,0.55,-0.04893617021276596
10080,0.26382978723404255,0.6319148936170212,-0.026595744680851064
10090,0.1574468085106383,0.6553191489361702,-0.007446808510638298
10100,0.1148936170212766,0.648936170212766,-0.030851063829787233
10110,0.04042553191489362,0.6627659574468086,-0.11382978723404255
10120,-0.0031914893617021275,0.7021276595744681,-0.17553191489361702
10130,-0.00425531914893617,0.7308510638297873,-0.1478723404255319
10140,-0.05638297872340425,0.7212765957446808,-0.043617021276595745
10150,-0.16489361702127658,0.7021276595744681,0.0574468085106383
10160,-0.2712765957446808,0.7148936170212766,0.09361702127659574
10170,-0.39361702127659576,0.7627659574468085,0.043617021276595745
10180,-0.5031914893617021,0.8617021276595744,-0.09574468085106383
10190,-0.5287234042553192,0.9680851063829787,-0.21808510638297873
10200,-0.44468085106382976,1.0212765957446808,-0.25957446808510637
10210,-0.3159574468085106,0.9872340425531915,-0.22446808510638297
10220,-0.14042553191489363,0.8585106382978723,-0.17553191489361702
10230,0.002127659574468085,0.6829787234042554,-0.1351063829787234
10240,0.11808510638297873,0.5212765957446809,-0.12127659574468085
10250,0.18723404255319148,0.4095744680851064,-0.10106382978723404
10260,0.24468085106382978,0.34361702127659577,-0.09787234042553192
10270,0.28936170212765955,0.33191489361702126,-0.15
10280,0.3404255319148936,0.3840425531914894,-0.22127659574468084
10290,0.35,0.4595744680851064,-0.23617021276595745
10300,0.3191489361702128,0.47127659574468084,-0.1946808510638298
10310,0.3670212765957447,0.39787234042553193,-0.11595744680851064
10320,0.48723404255319147,0.28936170212765955,-0.04468085106382979
10330,0.5457446808510639,0.2074468085106383,0.002127659574468085
10340,0.5297872340425532,0.15851063829787235,0.015957446808510637
10350,0.4797872340425532,0.1574468085106383,0.007446808510638298
10360,0.4085106382978723,0.1946808510638298,-0.015957446808510637
10370,0.32659574468085106,0.25638297872340426,-0.05851063829787234
10380,0.20319148936170212,0.3223404255319149,-0.10106382978723404
10390,0.029787234042553193,0.3574468085106383,-0.10957446808510639
10400,-0.10319148936170212,0.3393617021276596,-0.07234042553191489
10410,-0.1829787234042553,0.2702127659574468,-0.026595744680851064
10420,-0.1819148936170213,0.17659574468085107,-0.013829787234042552
10430,-0.15,0.09361702127659574,-0.06808510638297872
10440,-0.1595744680851064,0.04468085106382979,-0.20106382978723406
10450,-0.12872340425531914,0.015957446808510637,-0.35425531914893615
10460,0.023404255319148935,0.011702127659574468,-0.46808510638297873
10470,0.2680851063829787,0.03297872340425532,-0.5340425531914894
10480,0.4957446808510638,0.06382978723404255,-0.5085106382978724
10490,0.6468085106382979,0.08829787234042553,-0.39680851063829786
10500,0.7159574468085106,0.09468085106382979,-0.22340425531914893
10510,0.6627659574468086,0.0797872340425532,-0.0574468085106383
10520,0.5287234042553192,0.059574468085106386,0.006382978723404255
10530,0.3617021276595745,0.09680851063829787,-0.03723404255319149
10540,0.19148936170212766,0.16489361702127658,-0.13085106382978723
10550,0.0425531914893617,0.21170212765957447,-0.16702127659574467
10560,0.035106382978723406,0.1702127659574468,-0.09680851063829787
10570,0.0851063829787234,0.07872340425531915,0.01276595744680851
10580,0.1351063829787234,-0.030851063829787233,0.06489361702127659
10590,0.17659574468085107,-0.13936170212765958,0.05106382978723404
10600,0.21382978723404256,-0.20851063829787234,-0.02127659574468085
10610,0.21063829787234042,-0.2148936170212766,-0.11170212765957446
10620,0.19361702127659575,-0.15106382978723404,-0.18617021276595744
10630,0.1946808510638298,-0.0574468085106383,-0.19148936170212766
10640,0.20319148936170212,0.02553191489361702,-0.1574468085106383
10650,0.16489361702127658,0.10425531914893617,-0.12659574468085105
10660,0.1351063829787234,0.16382978723404254,-0.08191489361702127
10670,0.1595744680851064,0.18404255319148935,0.011702127659574468
10680,0.22446808510638297,0.15531914893617021,0.14680851063829786
10690,0.23085106382978723,0.11595744680851064,0.24574468085106382
10700,0.1202127659574468,0.10106382978723404,0.25638297872340426
10710,-0.11170212765957446,0.11702127659574468,0.16276595744680852
10720,-0.34893617021276596,0.15851063829787235,-0.0031914893617021275
10730,-0.4340425531914894,0.22234042553191488,-0.0925531914893617
10740,-0.451063829787234,0.30106382978723406,-0.05106382978723404
10750,-0.5234042553191489,0.3680851063829787,0.0031914893617021275
10760,-0.5819148936170213,0.3425531914893617,-0.0010638297872340426
10770,-0.33191489361702126,0.1819148936170213,-0.02872340425531915
10780,0.0797872340425532,-0.006382978723404255,-0.11382978723404255
10790,0.34361702127659577,-0.13617021276595745,-0.26595744680851063
10800,0.45851063829787236,-0.19893617021276597,-0.26595744680851063
10810,0.3617021276595745,-0.1925531914893617,-0.09468085106382979
10820,0.12978723404255318,-0.1723404255319149,0.14468085106382977
10830,-0.07553191489361702,-0.2170212765957447,0.3723404255319149
10840,-0.23191489361702128,-0.2797872340425532,0.4074468085106383
10850,-0.2680851063829787,-0.3648936170212766,0.2776595744680851
10860,-0.1595744680851064,-0.474468085106383,0.10957446808510639
10870,0.014893617021276596,-0.5542553191489362,-0.06063829787234042
10880,0.1819148936170213,-0.624468085106383,-0.1074468085106383
10890,0.2765957446808511,-0.698936170212766,-0.013829787234042552
10900,0.27872340425531916,-0.7531914893617021,0.10531914893617021
10910,0.2574468085106383,-0.8095744680851064,0.1946808510638298
10920,0.2404255319148936,-0.8351063829787234,0.19148936170212766
10930,0.11063829787234042,-0.7914893617021277,0.04893617021276596
10940,-0.06382978723404255,-0.6840425531914893,-0.1478723404255319
10950,-0.21595744680851064,-0.5212765957446809,-0.30638297872340425
10960,-0.32340425531914896,-0.34574468085106386,-0.3925531914893617
10970,-0.3446808510638298,-0.24574468085106382,-0.37127659574468086
10980,-0.2776595744680851,-0.24468085106382978,-0.27872340425531916
10990,-0.13085106382978723,-0.33085106382978724,-0.14468085106382977
11000,0.02553191489361702,-0.44468085106382976,-0.043617021276595745
11010.10101010101,0.17659574468085107,-0.5297872340425532,0
11020.20202020202,0.25957446808510637,-0.5691489361702128,-0.005319148936170213
11030.30303030303,0.27872340425531916,-0.5585106382978723,-0.03829787234042553
11040.40404040404,0.24680851063829787,-0.5042553191489362,-0.04042553191489362
11050.505050505051,0.15425531914893617,-0.4095744680851064,-0.0031914893617021275
11060.60606060606,0.014893617021276596,-0.32340425531914896,0.06382978723404255
11070.70707070707,-0.11595744680851064,-0.26595744680851063,0.13404255319148936
11080.808080808081,-0.21382978723404256,-0.22234042553191488,0.19148936170212766
11090.90909090909,-0.2872340425531915,-0.18723404255319148,0.21063829787234042
11101.0101010101,-0.30106382978723406,-0.16170212765957448,0.19893617021276597
11111.111111111111,-0.23404255319148937,-0.1276595744680851,0.18936170212765957
11121.212121212122,-0.08723404255319149,-0.08829787234042553,0.1819148936170213
11131.31313131313,0.02872340425531915,-0.05851063829787234,0.16276595744680852
11141.414141414141,0.1,-0.05851063829787234,0.16063829787234044
11151.515151515152,0.09468085106382979,-0.05851063829787234,0.1478723404255319
11161.61616161616,0.07340425531914893,-0.05851063829787234,0.12446808510638298
11171.717171717171,0.04468085106382979,-0.06914893617021277,0.09574468085106383
11181.818181818182,0.05319148936170213,-0.08617021276595745,0.06808510638297872
11191.919191919193,0.07127659574468086,-0.09042553191489362,0.06170212765957447
11202.020202020201,0.10638297872340426,-0.08723404255319149,0.09042553191489362
11212.121212121212,0.09042553191489362,-0.06382978723404255,0.14468085106382977
11222.222222222223,0.0010638297872340426,-0.030851063829787233,0.14148936170212767
11232.323232323231,-0.15106382978723404,0.018085106382978722,0.08617021276595745
11242.424242424242,-0.2691489361702128,0.07765957446808511,0.01276595744680851
11252.525252525253,-0.3659574468085106,0.15638297872340426,-0.02446808510638298
11262.626262626263,-0.4117021276595745,0.22234042553191488,-0.015957446808510637
11272.727272727272,-0.40638297872340423,0.2702127659574468,0.03723404255319149
11282.828282828283,-0.3148936170212766,0.28617021276595744,0.09787234042553192
11292.929292929293,-0.17659574468085107,0.2723404255319149,0.15106382978723404
11303.030303030304,-0.05425531914893617,0.25957446808510637,0.16702127659574467
11313.131313131313,0.03404255319148936,0.23829787234042554,0.14893617021276595
11323.232323232323,0.0627659574468085,0.22659574468085106,0.12234042553191489
11333.333333333334,0.009574468085106383,0.22234042553191488,0.08723404255319149
11343.434343434343,-0.08404255319148936,0.22021276595744682,0.05425531914893617
11353.535353535353,-0.18617021276595744,0.225531914893617,0.027659574468085105
11363.636363636364,-0.2170212765957447,0.22340425531914893,0.030851063829787233
11373.737373737375,-0.1478723404255319,0.20957446808510638,0.06063829787234042
11383.838383838383,-0.04042553191489362,0.21170212765957447,0.06702127659574468
11393.939393939394,0.0574468085106383,0.2127659574468085,0.022340425531914895
11404.040404040405,0.11595744680851064,0.19042553191489361,-0.03829787234042553
11414.141414141413,0.17340425531914894,0.1425531914893617,-0.0627659574468085
11424.242424242424,0.2648936170212766,0.07553191489361702,-0.010638297872340425
11434.343434343435,0.3351063829787234,0.014893617021276596,0.0627659574468085
11444.444444444445,0.4074468085106383,-0.05319148936170213,0.14680851063829786
11454.545454545454,0.4021276595744681,-0.09468085106382979,0.2127659574468085
11464.646464646465,0.30638297872340425,-0.1148936170212766,0.2276595744680851
11474.747474747475,0.1574468085106383,-0.10212765957446808,0.19893617021276597
11484.848484848484,0.02127659574468085,-0.059574468085106386,0.13085106382978723
11494.949494949495,-0.043617021276595745,-0.005319148936170213,0.0627659574468085
11505.050505050505,-0.02872340425531915,0.02021276595744681,0.026595744680851064
11515.151515151516,-0.013829787234042552,0.015957446808510637,0.03297872340425532
11525.252525252525,-0.013829787234042552,-0.007446808510638298,0.05106382978723404
11535.353535353535,0.011702127659574468,-0.035106382978723406,0.06595744680851064
11545.454545454546,0.06489361702127659,-0.06595744680851064,0.06489361702127659
11555.555555555555,0.08723404255319149,-0.1,0.04893617021276596
11565.656565656565,0.0925531914893617,-0.16595744680851063,0.0031914893617021275
11575.757575757576,0.08191489361702127,-0.23297872340425532,-0.0627659574468085
11585.858585858587,0.07553191489361702,-0.2904255319148936,-0.13936170212765958
11595.959595959595,0.08404255319148936,-0.3170212765957447,-0.18723404255319148
11606.060606060606,0.12234042553191489,-0.3021276595744681,-0.21914893617021278
11616.161616161617,0.15212765957446808,-0.2553191489361702,-0.19574468085106383
11626.262626262625,0.16808510638297872,-0.18404255319148935,-0.12127659574468085
11636.363636363636,0.10531914893617021,-0.10531914893617021,-0.026595744680851064
11646.464646464647,-0.02127659574468085,-0.0425531914893617,0.029787234042553193
11656.565656565657,-0.16382978723404254,-0.00425531914893617,0.045744680851063826
11666.666666666666,-0.2670212765957447,0.010638297872340425,0.02553191489361702
11676.767676767677,-0.3180851063829787,0.013829787234042552,0.015957446808510637
11686.868686868687,-0.3180851063829787,0.019148936170212766,0.026595744680851064
11696.969696969696,-0.28829787234042553,0.02872340425531915,0.05851063829787234
11707.070707070707,-0.251063829787234,0.04042553191489362,0.07446808510638298
11717.171717171717,-0.2127659574468085,0.04893617021276596,0.07446808510638298
11727.272727272728,-0.14893617021276595,0.031914893617021274,0.07234042553191489
11737.373737373737,-0.04042553191489362,-0.02446808510638298,0.06702127659574468
11747.474747474747,0.08723404255319149,-0.09468085106382979,0.06595744680851064
11757.575757575758,0.1819148936170213,-0.1574468085106383,0.07446808510638298
11767.676767676767,0.25638297872340426,-0.20106382978723406,0.08723404255319149
11777.777777777777,0.33297872340425533,-0.22234042553191488,0.10212765957446808
11787.878787878788,0.3851063829787234,-0.21170212765957447,0.10425531914893617
11797.979797979799,0.32659574468085106,-0.1702127659574468,0.04148936170212766
11808.080808080807,0.21808510638297873,-0.11170212765957446,-0.07234042553191489
11818.181818181818,0.10531914893617021,-0.059574468085106386,-0.16808510638297872
11828.282828282829,0.10638297872340426,-0.06170212765957447,-0.15
11838.383838383837,0.16595744680851063,-0.09893617021276596,-0.04148936170212766
11848.484848484848,0.1702127659574468,-0.1276595744680851,0.0425531914893617
11858.585858585859,0.14893617021276595,-0.1702127659574468,0.08404255319148936
11868.68686868687,0.18829787234042553,-0.2478723404255319,0.15425531914893617
11878.787878787878,0.25,-0.3425531914893617,0.2968085106382979
11888.888888888889,0.22127659574468084,-0.46914893617021275,0.49148936170212765
11898.9898989899,0.0797872340425532,-0.6329787234042553,0.6
11909.090909090908,-0.11063829787234042,-0.7680851063829788,0.551063829787234
11919.191919191919,-0.2712765957446808,-0.8489361702127659,0.4127659574468085
11929.29292929293,-0.3148936170212766,-0.9180851063829787,0.34574468085106386
11939.39393939394,-0.30957446808510636,-1.0053191489361701,0.39787234042553193
11949.494949494949,-0.3595744680851064,-1.1361702127659574,0.474468085106383
11959.59595959596,-0.39787234042553193,-1.3117021276595744,0.5478723404255319
11969.69696969697,-0.44893617021276594,-1.452127659574468,0.5989361702127659
11979.797979797979,-0.5595744680851064,-1.5340425531914894,0.6074468085106383
11989.89898989899,-0.6861702127659575,-1.553191489361702,0.5797872340425532
12000,-0.8021276595744681,-1.5212765957446808,0.5521276595744681
12010,-0.8670212765957447,-1.4702127659574469,0.5085106382978724
12020,-0.8404255319148937,-1.4234042553191488,0.4829787234042553
12030,-0.7287234042553191,-1.3946808510638298,0.4957446808510638
12040,-0.5787234042553191,-1.3574468085106384,0.5446808510638298
12050,-0.42446808510638295,-1.278723404255319,0.5638297872340425
12060,-0.28936170212765955,-1.1297872340425532,0.5138297872340426
12070,-0.20212765957446807,-0.975531914893617,0.4308510638297872
12080,-0.16914893617021276,-0.8776595744680851,0.3723404255319149
12090,-0.15851063829787235,-0.8202127659574469,0.3276595744680851
12100,-0.12340425531914893,-0.798936170212766,0.2851063829787234
12110,-0.08723404255319149,-0.774468085106383,0.19893617021276597
12120,-0.05638297872340425,-0.7393617021276596,0.07659574468085106
12130,-0.019148936170212766,-0.676595744680851,-0.059574468085106386
12140,0.005319148936170213,-0.5989361702127659,-0.1702127659574468
12150,0.0031914893617021275,-0.5468085106382978,-0.2127659574468085
12160,0.014893617021276596,-0.5170212765957447,-0.1829787234042553
12170,0.06382978723404255,-0.5276595744680851,-0.06489361702127659
12180,0.1351063829787234,-0.6021276595744681,0.09361702127659574
12190,0.2297872340425532,-0.676595744680851,0.18723404255319148
12200,0.33191489361702126,-0.6797872340425531,0.2170212765957447
12210,0.3776595744680851,-0.6372340425531915,0.22659574468085106
12220,0.324468085106383,-0.5457446808510639,0.2053191489361702
12230,0.25638297872340426,-0.40638297872340423,0.17127659574468085
12240,0.15851063829787235,-0.2521276595744681,0.16914893617021276
12250,0.019148936170212766,-0.12659574468085105,0.19042553191489361
12260,-0.1127659574468085,-0.045744680851063826,0.18085106382978725
12270,-0.14361702127659576,0.0010638297872340426,0.17127659574468085
12280,-0.06063829787234042,0.030851063829787233,0.2053191489361702
12290,0.04468085106382979,0.10957446808510639,0.275531914893617
12300,0.10638297872340426,0.225531914893617,0.3351063829787234
12310,0.11382978723404255,0.3223404255319149,0.3723404255319149
12320,0.06808510638297872,0.42446808510638295,0.32127659574468087
12330,-0.0010638297872340426,0.548936170212766,0.14148936170212767
12340,-0.08617021276595745,0.723404255319149,-0.1202127659574468
12350,-0.18617021276595744,0.9063829787234042,-0.3946808510638298
12360,-0.2776595744680851,1.0382978723404255,-0.6117021276595744
12370,-0.30851063829787234,1.1436170212765957,-0.7425531914893617
12380,-0.27872340425531916,1.221276595744681,-0.7436170212765958
12390,-0.19787234042553192,1.2414893617021276,-0.6510638297872341
12400,-0.0797872340425532,1.224468085106383,-0.5063829787234042
12410,0.0574468085106383,1.2138297872340424,-0.39148936170212767
12420,0.13297872340425532,1.2436170212765958,-0.34574468085106386
12430,0.125531914893617,1.2797872340425531,-0.36914893617021277
12440,0.04680851063829787,1.3010638297872341,-0.42872340425531913
12450,-0.00851063829787234,1.2904255319148936,-0.46702127659574466
12460,0.002127659574468085,1.2372340425531916,-0.46595744680851064
12470,0.039361702127659576,1.1627659574468086,-0.43936170212765957
12480,0.15638297872340426,1.0765957446808512,-0.3904255319148936
12490,0.28617021276595744,0.9989361702127659,-0.3191489361702128
12500,0.35638297872340424,0.9148936170212766,-0.2531914893617021
12510,0.32978723404255317,0.8425531914893617,-0.22021276595744682
12520,0.2946808510638298,0.8053191489361702,-0.2393617021276596
12530,0.28297872340425534,0.7978723404255319,-0.2542553191489362
12540,0.2957446808510638,0.8095744680851064,-0.2531914893617021
12550,0.2957446808510638,0.8212765957446808,-0.2521276595744681
12560,0.3021276595744681,0.8393617021276596,-0.2712765957446808
12570,0.2702127659574468,0.8851063829787233,-0.32872340425531915
12580,0.24468085106382978,0.9404255319148936,-0.39893617021276595
12590,0.24468085106382978,1.0127659574468084,-0.41914893617021276
12600,0.24148936170212765,1.0638297872340425,-0.3723404255319149
12610,0.22340425531914893,1.0617021276595744,-0.2680851063829787
12620,0.25851063829787235,0.9872340425531915,-0.13297872340425532
12630,0.30957446808510636,0.8585106382978723,0
12640,0.37553191489361704,0.7202127659574468,0.07553191489361702
12650,0.4627659574468085,0.6276595744680851,0.09574468085106383
12660,0.4819148936170213,0.6063829787234043,0.08404255319148936
12670,0.4117021276595745,0.6234042553191489,0.022340425531914895
12680,0.2712765957446808,0.674468085106383,-0.06489361702127659
12690,0.05425531914893617,0.7457446808510638,-0.1478723404255319
12700,-0.18723404255319148,0.7829787234042553,-0.20957446808510638
12710,-0.35,0.7563829787234042,-0.25
12720,-0.3021276595744681,0.6712765957446809,-0.2872340425531915
12730,-0.13617021276595745,0.6074468085106383,-0.3829787234042553
12740,0.08936170212765958,0.5808510638297872,-0.5053191489361702
12750,0.28404255319148936,0.5957446808510638,-0.5351063829787234
12760,0.3202127659574468,0.6691489361702128,-0.4968085106382979
12770,0.2712765957446808,0.7627659574468085,-0.3946808510638298
12780,0.2702127659574468,0.8106382978723404,-0.2404255319148936
12790,0.26170212765957446,0.8329787234042553,-0.16276595744680852
12800,0.1851063829787234,0.8382978723404255,-0.21595744680851064
12810,0.06808510638297872,0.8468085106382979,-0.34361702127659577
12820,0.0010638297872340426,0.8670212765957447,-0.4425531914893617
12830,-0.013829787234042552,0.8563829787234043,-0.46595744680851064
12840,-0.04148936170212766,0.8148936170212766,-0.4521276595744681
12850,-0.019148936170212766,0.747872340425532,-0.425531914893617
12860,0.02553191489361702,0.6563829787234042,-0.39574468085106385
12870,0.24148936170212765,0.526595744680851,-0.3468085106382979
12880,0.5829787234042553,0.4095744680851064,-0.2574468085106383
12890,0.7893617021276595,0.33404255319148934,-0.1372340425531915
12900,0.8382978723404255,0.2712765957446808,0.026595744680851064
12910,0.7542553191489362,0.22234042553191488,0.20957446808510638
12920,0.5585106382978723,0.1946808510638298,0.3776595744680851
12930,0.28297872340425534,0.18617021276595744,0.5042553191489362
12940,0,0.1776595744680851,0.5457446808510639
12950,-0.1595744680851064,0.1148936170212766,0.5372340425531915
12960,-0.12872340425531914,-0.011702127659574468,0.474468085106383
12970,-0.035106382978723406,-0.09042553191489362,0.2851063829787234
12980,0.04148936170212766,-0.10957446808510639,0.03829787234042553
12990,0.026595744680851064,-0.07340425531914893,-0.13191489361702127
13000,-0.13085106382978723,-0.0031914893617021275,-0.23404255319148937
13010.10101010101,-0.08617021276595745,0.01702127659574468,-0.16595744680851063
13020.20202020202,0.21170212765957447,-0.05531914893617021,0.019148936170212766
13030.30303030303,0.5872340425531914,-0.18829787234042553,0.23191489361702128
13040.40404040404,0.6425531914893617,-0.26063829787234044,0.2712765957446808
13050.505050505051,0.46382978723404256,-0.3127659574468085,0.16170212765957448
13060.60606060606,0.25851063829787235,-0.3372340425531915,0.0851063829787234
13070.70707070707,0.039361702127659576,-0.2404255319148936,0.12340425531914893
13080.808080808081,-0.2297872340425532,-0.09893617021276596,0.2351063829787234
13090.90909090909,-0.44468085106382976,-0.010638297872340425,0.29148936170212764
13101.0101010101,-0.5648936170212766,0.022340425531914895,0.2425531914893617
13111.111111111111,-0.5914893617021276,-0.010638297872340425,0.11702127659574468
13121.212121212122,-0.5723404255319149,-0.05,-0.06382978723404255
13131.31313131313,-0.5159574468085106,-0.06063829787234042,-0.22340425531914893
13141.414141414141,-0.4478723404255319,-0.0425531914893617,-0.28829787234042553
13151.515151515152,-0.3351063829787234,-0.02446808510638298,-0.26170212765957446
13161.61616161616,-0.20106382978723406,-0.009574468085106383,-0.20319148936170212
13171.717171717171,-0.045744680851063826,-0.014893617021276596,-0.11702127659574468
13181.818181818182,0.006382978723404255,-0.014893617021276596,-0.039361702127659576
13191.919191919193,-0.07659574468085106,0,-0.0627659574468085
13202.020202020201,-0.12872340425531914,-0.0010638297872340426,-0.09361702127659574
13212.121212121212,-0.17340425531914894,0.00425531914893617,-0.09787234042553192
13222.222222222223,-0.2574468085106383,0.035106382978723406,-0.1148936170212766
13232.323232323231,-0.3223404255319149,0.08085106382978724,-0.1478723404255319
13242.424242424242,-0.41595744680851066,0.1276595744680851,-0.21808510638297873
13252.525252525253,-0.3851063829787234,0.1351063829787234,-0.26276595744680853
13262.626262626263,-0.23191489361702128,0.13617021276595745,-0.2734042553191489
13272.727272727272,-0.10319148936170212,0.12127659574468085,-0.2957446808510638
13282.828282828283,-0.00851063829787234,0.07872340425531915,-0.2936170212765957
13292.929292929293,0.09042553191489362,0.0425531914893617,-0.24148936170212765
13303.030303030304,0.1202127659574468,0.05106382978723404,-0.1776595744680851
13313.131313131313,0.10851063829787234,0.06808510638297872,-0.09042553191489362
13323.232323232323,0.07340425531914893,0.10106382978723404,-0.02127659574468085
13333.333333333334,0.03829787234042553,0.16063829787234044,0.018085106382978722
13343.434343434343,-0.039361702127659576,0.26170212765957446,0.02446808510638298
13353.535353535353,-0.15,0.3659574468085106,-0.019148936170212766
13363.636363636364,-0.2531914893617021,0.41914893617021276,-0.12872340425531914
13373.737373737375,-0.19787234042553192,0.3829787234042553,-0.24148936170212765
13383.838383838383,-0.0925531914893617,0.30319148936170215,-0.33085106382978724
13393.939393939394,-0.039361702127659576,0.2074468085106383,-0.4297872340425532
13404.040404040405,0.08936170212765958,0.052127659574468084,-0.475531914893617
13414.141414141413,0.3670212765957447,-0.1202127659574468,-0.3882978723404255
13424.242424242424,0.7053191489361702,-0.31382978723404253,-0.1776595744680851
13434.343434343435,0.9042553191489362,-0.5074468085106383,0.07659574468085106
13444.444444444445,0.9127659574468086,-0.6202127659574468,0.26170212765957446
13454.545454545454,0.8074468085106383,-0.65,0.3372340425531915
13464.646464646465,0.6170212765957447,-0.5808510638297872,0.28829787234042553
13474.747474747475,0.42659574468085104,-0.4276595744680851,0.11702127659574468
13484.848484848484,0.2978723404255319,-0.26276595744680853,-0.06382978723404255
13494.949494949495,0.2712765957446808,-0.1702127659574468,-0.17127659574468085
13505.050505050505,0.3393617021276596,-0.16382978723404254,-0.19574468085106383
13515.151515151516,0.46808510638297873,-0.20319148936170212,-0.13936170212765958
13525.252525252525,0.5414893617021277,-0.225531914893617,-0.08723404255319149
13535.353535353535,0.5340425531914894,-0.22659574468085106,-0.11063829787234042
13545.454545454546,0.43617021276595747,-0.2,-0.19893617021276597
13555.555555555555,0.3159574468085106,-0.13297872340425532,-0.26063829787234044
13565.656565656565,0.16808510638297872,-0.059574468085106386,-0.2074468085106383
13575.757575757576,-0.011702127659574468,-0.02127659574468085,-0.10531914893617021
13585.858585858587,-0.11702127659574468,-0.05851063829787234,0.018085106382978722
13595.959595959595,-0.1351063829787234,-0.14042553191489363,0.10531914893617021
13606.060606060606,-0.1074468085106383,-0.20319148936170212,0.11808510638297873
13616.161616161617,-0.04148936170212766,-0.23829787234042554,0.06063829787234042
13626.262626262625,0.04468085106382979,-0.2425531914893617,-0.02127659574468085
13636.363636363636,0.13297872340425532,-0.20106382978723406,-0.09042553191489362
13646.464646464647,0.15212765957446808,-0.14361702127659576,-0.11170212765957446
13656.565656565657,0.07872340425531915,-0.0851063829787234,-0.12127659574468085
13666.666666666666,-0.036170212765957444,-0.029787234042553193,-0.10319148936170212
13676.767676767677,-0.15531914893617021,-0.009574468085106383,-0.07340425531914893
13686.868686868687,-0.25851063829787235,-0.005319148936170213,-0.0574468085106383
13696.969696969696,-0.298936170212766,0.006382978723404255,-0.05531914893617021
13707.070707070707,-0.30425531914893617,0.05319148936170213,-0.05425531914893617
13717.171717171717,-0.298936170212766,0.12127659574468085,-0.04893617021276596
13727.272727272728,-0.3351063829787234,0.19787234042553192,-0.03297872340425532
13737.373737373737,-0.3882978723404255,0.25,-0.03404255319148936
13747.474747474747,-0.45851063829787236,0.25957446808510637,-0.059574468085106386
13757.575757575758,-0.4031914893617021,0.20957446808510638,-0.07553191489361702
13767.676767676767,-0.2957446808510638,0.17553191489361702,-0.05425531914893617
13777.777777777777,-0.2712765957446808,0.17127659574468085,-0.04680851063829787
13787.878787878788,-0.2957446808510638,0.14361702127659576,-0.06595744680851064
13797.979797979799,-0.32127659574468087,0.09787234042553192,-0.12340425531914893
13808.080808080807,-0.26170212765957446,0.014893617021276596,-0.1851063829787234
13818.181818181818,-0.07127659574468086,-0.07765957446808511,-0.18085106382978725
13828.282828282829,0.12659574468085105,-0.12234042553191489,-0.15851063829787235
13838.383838383837,0.24361702127659574,-0.13404255319148936,-0.14574468085106382
13848.484848484848,0.2691489361702128,-0.13085106382978723,-0.19148936170212766
13858.585858585859,0.3680851063829787,-0.13297872340425532,-0.25638297872340426
13868.68686868687,0.4723404255319149,-0.1202127659574468,-0.2946808510638298
13878.787878787878,0.5893617021276596,-0.14574468085106382,-0.30957446808510636
13888.888888888889,0.7457446808510638,-0.18936170212765957,-0.2797872340425532
13898.9898989899,0.847872340425532,-0.2351063829787234,-0.2648936170212766
13909.090909090908,0.9340425531914893,-0.29148936170212764,-0.24893617021276596
13919.191919191919,0.9148936170212766,-0.30851063829787234,-0.32340425531914896
13929.29292929293,1.0021276595744681,-0.29148936170212764,-0.3702127659574468
13939.39393939394,1.0106382978723405,-0.19148936170212766,-0.3702127659574468
13949.494949494949,0.9840425531914894,-0.11595744680851064,-0.2957446808510638
13959.59595959596,0.9563829787234043,-0.09148936170212765,-0.18617021276595744
13969.69696969697,0.9202127659574468,-0.09361702127659574,-0.1148936170212766
13979.797979797979,0.8170212765957446,-0.08191489361702127,-0.0925531914893617
13989.89898989899,0.674468085106383,-0.04468085106382979,-0.1
14000,0.524468085106383,0.005319148936170213,-0.1127659574468085
14010,0.3893617021276596,0.0627659574468085,-0.125531914893617
14020,0.28404255319148936,0.11914893617021277,-0.1276595744680851
14030,0.15425531914893617,0.1829787234042553,-0.15106382978723404
14040,-0.015957446808510637,0.26276595744680853,-0.19042553191489361
14050,-0.2,0.3372340425531915,-0.23085106382978723
14060,-0.35319148936170214,0.3893617021276596,-0.2127659574468085
14070,-0.5010638297872341,0.42127659574468085,-0.14680851063829786
14080,-0.6382978723404256,0.4478723404255319,-0.05531914893617021
14090,-0.7691489361702127,0.46702127659574466,0.06489361702127659
14100,-0.9085106382978724,0.4946808510638298,0.14574468085106382
14110,-1.0393617021276595,0.5319148936170213,0.13936170212765958
14120,-1.146808510638298,0.5765957446808511,0.08191489361702127
14130,-1.2085106382978723,0.5989361702127659,0.014893617021276596
14140,-1.2170212765957447,0.5723404255319149,-0.023404255319148935
14150,-1.174468085106383,0.4946808510638298,-0.03404255319148936
14160,-1.0382978723404255,0.3617021276595745,0.0031914893617021275
14170,-0.8340425531914893,0.20425531914893616,0.13617021276595745
14180,-0.5851063829787234,0.045744680851063826,0.34361702127659577
14190,-0.3851063829787234,-0.05425531914893617,0.5148936170212766
14200,-0.251063829787234,-0.07765957446808511,0.5914893617021276
14210,-0.17872340425531916,-0.052127659574468084,0.5595744680851064
14220,-0.2478723404255319,0.0010638297872340426,0.39787234042553193
14230,-0.3627659574468085,0.04468085106382979,0.20106382978723406
14240,-0.37659574468085105,0.02127659574468085,0.07446808510638298
14250,-0.35425531914893615,-0.00425531914893617,-0.02127659574468085
14260,-0.1776595744680851,-0.029787234042553193,-0.09680851063829787
14270,0.06808510638297872,-0.023404255319148935,-0.1372340425531915
14280,0.13404255319148936,0.043617021276595745,-0.22127659574468084
14290,0.29148936170212764,0.09680851063829787,-0.23297872340425532
14300,0.15851063829787235,0.2542553191489362,-0.2851063829787234
14310,-0.007446808510638298,0.33617021276595743,-0.37127659574468086
14320,0.026595744680851064,0.32127659574468087,-0.3202127659574468
14330,0.03297872340425532,0.3021276595744681,-0.37872340425531914
14340,-0.10106382978723404,0.24361702127659574,-0.5361702127659574
14350,0.20212765957446807,0.11914893617021277,-0.5223404255319148
14360,0.4946808510638298,0.09680851063829787,-0.4053191489361702
14370,0.6553191489361702,0.02446808510638298,-0.2797872340425532
14380,0.7648936170212766,-0.13191489361702127,-0.0627659574468085
14390,0.8925531914893617,-0.3191489361702128,0.1478723404255319
14400,1.0638297872340425,-0.5180851063829788,0.3202127659574468
14410,1.1659574468085105,-0.6734042553191489,0.4968085106382979
14420,1.1585106382978723,-0.752127659574468,0.6287234042553191
14430,0.9957446808510638,-0.7606382978723404,0.6914893617021277
14440,0.7063829787234043,-0.6936170212765957,0.6287234042553191
14450,0.3446808510638298,-0.5574468085106383,0.4574468085106383
14460,-0.002127659574468085,-0.42127659574468085,0.2723404255319149
14470,-0.28085106382978725,-0.3,0.1574468085106383
14480,-0.4627659574468085,-0.17446808510638298,0.13617021276595745
14490,-0.548936170212766,-0.059574468085106386,0.18829787234042553
14500,-0.5191489361702127,-0.01276595744680851,0.3148936170212766
14510,-0.4531914893617021,-0.02021276595744681,0.44468085106382976
14520,-0.37446808510638296,-0.08297872340425531,0.498936170212766
14530,-0.3180851063829787,-0.12234042553191489,0.48936170212765956
14540,-0.27872340425531916,-0.1074468085106383,0.44361702127659575
14550,-0.2925531914893617,-0.07659574468085106,0.37340425531914895
14560,-0.32340425531914896,-0.06914893617021277,0.3404255319148936
14570,-0.3904255319148936,-0.0627659574468085,0.28617021276595744
14580,-0.5085106382978724,-0.04893617021276596,0.1829787234042553
14590,-0.5276595744680851,-0.07021276595744681,0.043617021276595745
14600,-0.45851063829787236,-0.10531914893617021,-0.06382978723404255
14610,-0.25957446808510637,-0.15851063829787235,-0.0797872340425532
14620,-0.04468085106382979,-0.21170212765957447,0
14630,0.0925531914893617,-0.26170212765957446,0.10212765957446808
14640,0.1574468085106383,-0.3159574468085106,0.1851063829787234
14650,0.14574468085106382,-0.3659574468085106,0.20957446808510638
14660,0.0797872340425532,-0.3946808510638298,0.1925531914893617
14670,-0.006382978723404255,-0.3851063829787234,0.17872340425531916
14680,-0.1595744680851064,-0.32978723404255317,0.16276595744680852
14690,-0.30319148936170215,-0.26170212765957446,0.1595744680851064
14700,-0.4329787234042553,-0.2053191489361702,0.15531914893617021
14710,-0.5159574468085106,-0.16489361702127658,0.14042553191489363
14720,-0.5648936170212766,-0.1351063829787234,0.09361702127659574
14730,-0.5659574468085107,-0.12127659574468085,0.015957446808510637
14740,-0.4765957446808511,-0.13085106382978723,-0.03829787234042553
14750,-0.35212765957446807,-0.1372340425531915,-0.07872340425531915
14760,-0.2170212765957447,-0.14148936170212767,-0.12446808510638298
14770,-0.02553191489361702,-0.16702127659574467,-0.14361702127659576
14780,0.20212765957446807,-0.2276595744680851,-0.13191489361702127
14790,0.4127659574468085,-0.32127659574468087,-0.10425531914893617
14800,0.5553191489361702,-0.41382978723404257,-0.05851063829787234
14810,0.575531914893617,-0.4648936170212766,-0.036170212765957444
14820,0.498936170212766,-0.48829787234042554,-0.023404255319148935
14830,0.39680851063829786,-0.5031914893617021,0.02021276595744681
14840,0.2978723404255319,-0.5095744680851064,0.07765957446808511
14850,0.17446808510638298,-0.474468085106383,0.11063829787234042
14860,-0.022340425531914895,-0.3670212765957447,0.06063829787234042
14870,-0.19787234042553192,-0.2351063829787234,-0.0031914893617021275
14880,-0.2404255319148936,-0.13936170212765958,0.03829787234042553
14890,-0.24468085106382978,-0.06382978723404255,0.13617021276595745
14900,-0.17127659574468085,-0.031914893617021274,0.28617021276595744
14910,-0.12234042553191489,-0.014893617021276596,0.40106382978723404
14920,-0.3180851063829787,0.009574468085106383,0.29148936170212764
14930,-0.32340425531914896,-0.052127659574468084,0.16170212765957448
14940,-0.251063829787234,-0.011702127659574468,0.030851063829787233
14950,-0.32659574468085106,0.10319148936170212,-0.17872340425531916
14960,-0.42659574468085104,0.16914893617021276,-0.31382978723404253
14970,-0.4031914893617021,0.21914893617021278,-0.3840425531914894
14980,-0.3021276595744681,0.26063829787234044,-0.4319148936170213
14990,-0.09787234042553192,0.25957446808510637,-0.4808510638297872
15000,0.20319148936170212,0.225531914893617,-0.48723404255319147
15010.10101010101,0.5340425531914894,0.17659574468085107,-0.3819148936170213
15020.20202020202,0.6574468085106383,0.17553191489361702,-0.21595744680851064
15030.30303030303,0.4797872340425532,0.26595744680851063,-0.10638297872340426
15040.40404040404,0.13829787234042554,0.3893617021276596,-0.05
15050.505050505051,-0.2404255319148936,0.5042553191489362,-0.010638297872340425
15060.60606060606,-0.6021276595744681,0.5829787234042553,-0.05
15070.70707070707,-0.701063829787234,0.5989361702127659,-0.047872340425531915
15080.808080808081,-0.7265957446808511,0.625531914893617,-0.05106382978723404
15090.90909090909,-0.7382978723404255,0.5904255319148937,-0.11914893617021277
15101.0101010101,-0.6351063829787233,0.4734042553191489,-0.21808510638297873
15111.111111111111,-0.39893617021276595,0.3170212765957447,-0.298936170212766
15121.212121212122,-0.33404255319148934,0.17553191489361702,-0.37340425531914895
15131.31313131313,-0.43936170212765957,0.07553191489361702,-0.48829787234042554
15141.414141414141,-0.3553191489361702,0.00851063829787234,-0.5393617021276595
15151.515151515152,-0.08085106382978724,0.023404255319148935,-0.502127659574468
15161.61616161616,0.2478723404255319,0.0925531914893617,-0.44361702127659575
15171.717171717171,0.4925531914893617,0.1723404255319149,-0.33191489361702126
15181.818181818182,0.5776595744680851,0.24361702127659574,-0.21382978723404256
15191.919191919193,0.44574468085106383,0.2968085106382979,-0.16808510638297872
15202.020202020201,0.2478723404255319,0.324468085106383,-0.16063829787234044
15212.121212121212,0.06702127659574468,0.3351063829787234,-0.12446808510638298
15222.222222222223,-0.0627659574468085,0.3468085106382979,-0.06489361702127659
15232.323232323231,-0.07553191489361702,0.3414893617021277,0.0010638297872340426
15242.424242424242,-0.04468085106382979,0.3404255319148936,0.039361702127659576
15252.525252525253,0.0031914893617021275,0.3,-0.02872340425531915
15262.626262626263,0.02127659574468085,0.23829787234042554,-0.10319148936170212
15272.727272727272,0.013829787234042552,0.1797872340425532,-0.09893617021276596
15282.828282828283,-0.047872340425531915,0.14042553191489363,0.030851063829787233
15292.929292929293,-0.13191489361702127,0.15212765957446808,0.20319148936170212
15303.030303030304,-0.21914893617021278,0.1925531914893617,0.3468085106382979
15313.131313131313,-0.20106382978723406,0.20106382978723406,0.4627659574468085
15323.232323232323,-0.12659574468085105,0.18404255319148935,0.5234042553191489
15333.333333333334,-0.015957446808510637,0.12446808510638298,0.49148936170212765
15343.434343434343,0.07553191489361702,0.07340425531914893,0.3574468085106383
15353.535353535353,0.17553191489361702,0.047872340425531915,0.15106382978723404
15363.636363636364,0.3202127659574468,0.029787234042553193,-0.03723404255319149
15373.737373737375,0.4968085106382979,-0.009574468085106383,-0.08617021276595745
15383.838383838383,0.5829787234042553,-0.059574468085106386,-0.014893617021276596
15393.939393939394,0.6276595744680851,-0.13404255319148936,0.14042553191489363
15404.040404040405,0.6627659574468086,-0.225531914893617,0.3404255319148936
15414.141414141413,0.6510638297872341,-0.28297872340425534,0.4648936170212766
15424.242424242424,0.5617021276595745,-0.28829787234042553,0.45
15434.343434343435,0.40106382978723404,-0.24574468085106382,0.34893617021276596
15444.444444444445,0.17553191489361702,-0.15531914893617021,0.1574468085106383
15454.545454545454,-0.06702127659574468,-0.03723404255319149,-0.10531914893617021
15464.646464646465,-0.19574468085106383,0.05106382978723404,-0.30319148936170215
15474.747474747475,-0.22340425531914893,0.1276595744680851,-0.3851063829787234
15484.848484848484,-0.2053191489361702,0.1925531914893617,-0.3648936170212766
15494.949494949495,-0.17340425531914894,0.23297872340425532,-0.2670212765957447
15505.050505050505,-0.1202127659574468,0.2127659574468085,-0.1127659574468085
15515.151515151516,-0.029787234042553193,0.1202127659574468,0.06489361702127659
15525.252525252525,-0.0425531914893617,0.05106382978723404,0.13297872340425532
15535.353535353535,-0.12127659574468085,0.02446808510638298,0.07127659574468086
15545.454545454546,-0.1074468085106383,-0.0031914893617021275,0
15555.555555555555,-0.07234042553191489,-0.052127659574468084,0
15565.656565656565,-0.05425531914893617,-0.14468085106382977,0.08829787234042553
15575.757575757576,-0.002127659574468085,-0.298936170212766,0.24148936170212765
15585.858585858587,0.06170212765957447,-0.46595744680851064,0.3776595744680851
15595.959595959595,0.1127659574468085,-0.5563829787234043,0.44893617021276594
15606.060606060606,0.0925531914893617,-0.5202127659574468,0.4829787234042553
15616.161616161617,0.08404255319148936,-0.4276595744680851,0.5478723404255319
15626.262626262625,-0.03829787234042553,-0.2734042553191489,0.5925531914893617
15636.363636363636,-0.2053191489361702,-0.12340425531914893,0.5776595744680851
15646.464646464647,-0.225531914893617,-0.04148936170212766,0.5819148936170213
15656.565656565657,-0.2553191489361702,0.0031914893617021275,0.5659574468085107
15666.666666666666,-0.474468085106383,0.052127659574468084,0.3819148936170213
15676.767676767677,-0.5723404255319149,0.027659574468085105,0.11808510638297873
15686.868686868687,-0.32553191489361705,0.009574468085106383,-0.06382978723404255
15696.969696969696,-0.10425531914893617,0.05531914893617021,-0.23085106382978723
15707.070707070707,0.031914893617021274,0.05,-0.3904255319148936
15717.171717171717,0.3159574468085106,0.027659574468085105,-0.4425531914893617
15727.272727272728,0.6946808510638298,-0.04042553191489362,-0.37127659574468086
15737.373737373737,0.9585106382978723,-0.16914893617021276,-0.28085106382978725
15747.474747474747,1.0840425531914895,-0.251063829787234,-0.22872340425531915
15757.575757575758,1.1212765957446809,-0.2712765957446808,-0.20851063829787234
15767.676767676767,1.0553191489361702,-0.2553191489361702,-0.16382978723404254
15777.777777777777,0.8595744680851064,-0.23617021276595745,-0.18404255319148935
15787.878787878788,0.7404255319148936,-0.22659574468085106,-0.2393617021276596
15797.979797979799,0.7042553191489361,-0.19042553191489361,-0.2680851063829787
15808.080808080807,0.6553191489361702,-0.1702127659574468,-0.30531914893617024
15818.181818181818,0.7297872340425532,-0.1797872340425532,-0.2872340425531915
15828.282828282829,0.7861702127659574,-0.15,-0.28936170212765955
15838.383838383837,0.8053191489361702,-0.11063829787234042,-0.30851063829787234
15848.484848484848,0.7659574468085106,-0.03829787234042553,-0.30106382978723406
15858.585858585859,0.6021276595744681,0.05851063829787234,-0.2531914893617021
15868.68686868687,0.37127659574468086,0.14042553191489363,-0.18829787234042553
15878.787878787878,0.13829787234042554,0.2074468085106383,-0.15638297872340426
15888.888888888889,0.013829787234042552,0.2425531914893617,-0.14148936170212767
15898.9898989899,-0.013829787234042552,0.23191489361702128,-0.10425531914893617
15909.090909090908,-0.015957446808510637,0.1946808510638298,-0.10851063829787234
15919.191919191919,0.02553191489361702,0.14042553191489363,-0.1372340425531915
15929.29292929293,0.11063829787234042,0.11808510638297873,-0.14893617021276595
15939.39393939394,0.11914893617021277,0.17127659574468085,-0.15425531914893617
15949.494949494949,0.05638297872340425,0.2691489361702128,-0.15
15959.59595959596,-0.01702127659574468,0.39680851063829786,-0.1351063829787234
15969.69696969697,-0.06489361702127659,0.5287234042553192,-0.11595744680851064
15979.797979797979,-0.13404255319148936,0.6446808510638298,-0.1425531914893617
15989.89898989899,-0.21808510638297873,0.7329787234042553,-0.21808510638297873
16000,-0.2872340425531915,0.774468085106383,-0.2872340425531915
16010.10101010101,-0.2925531914893617,0.7702127659574468,-0.30425531914893617
16020.20202020202,-0.2904255319148936,0.7393617021276596,-0.3021276595744681
16030.30303030303,-0.35425531914893615,0.7191489361702128,-0.3180851063829787
16040.40404040404,-0.40106382978723404,0.6978723404255319,-0.2925531914893617
16050.505050505051,-0.44042553191489364,0.6478723404255319,-0.21170212765957447
16060.60606060606,-0.41595744680851066,0.55,-0.11063829787234042
16070.70707070707,-0.44042553191489364,0.46914893617021275,-0.045744680851063826
16080.808080808081,-0.46382978723404256,0.4053191489361702,-0.06489361702127659
16090.90909090909,-0.46063829787234045,0.35851063829787233,-0.14574468085106382
16101.0101010101,-0.37446808510638296,0.3,-0.22446808510638297
16111.111111111111,-0.15212765957446808,0.18723404255319148,-0.25638297872340426
16121.212121212122,0.21170212765957447,0.045744680851063826,-0.2276595744680851
16131.31313131313,0.5914893617021276,-0.036170212765957444,-0.16914893617021276
16141.414141414141,0.8276595744680851,-0.036170212765957444,-0.09148936170212765
16151.515151515152,0.925531914893617,0.013829787234042552,0.01276595744680851
16161.61616161616,0.8765957446808511,0.08191489361702127,0.12872340425531914
16171.717171717171,0.7297872340425532,0.14361702127659576,0.2127659574468085
16181.818181818182,0.5106382978723404,0.17127659574468085,0.2478723404255319
16191.919191919193,0.2404255319148936,0.17659574468085107,0.2542553191489362
16202.020202020201,0.0010638297872340426,0.1797872340425532,0.24468085106382978
16212.121212121212,-0.12446808510638298,0.16595744680851063,0.23617021276595745
16222.222222222223,-0.1702127659574468,0.15638297872340426,0.22446808510638297
16232.323232323231,-0.14574468085106382,0.1723404255319149,0.14042553191489363
16242.424242424242,-0.01702127659574468,0.2297872340425532,0.007446808510638298
16252.525252525253,0.17340425531914894,0.37446808510638296,-0.13085106382978723
16262.626262626263,0.3648936170212766,0.6159574468085106,-0.2521276595744681
16272.727272727272,0.41808510638297874,0.9202127659574468,-0.2925531914893617
16282.828282828283,0.32127659574468087,1.1989361702127659,-0.2478723404255319
16292.929292929293,0.1148936170212766,1.4031914893617021,-0.1148936170212766
16303.030303030304,-0.17553191489361702,1.501063829787234,-0.03829787234042553
16313.131313131313,-0.2680851063829787,1.4819148936170212,0.005319148936170213
16323.232323232323,-0.25851063829787235,1.4170212765957446,-0.039361702127659576
16333.333333333334,-0.15425531914893617,1.2819148936170213,-0.1851063829787234
16343.434343434343,0.15212765957446808,1.0819148936170213,-0.28191489361702127
16353.535353535353,0.5861702127659575,0.9468085106382979,-0.21914893617021278
16363.636363636364,0.8840425531914894,0.9042553191489362,0.011702127659574468
16373.737373737375,0.7170212765957447,0.9542553191489361,0.2351063829787234
16383.838383838383,0.16914893617021276,1.0382978723404255,0.31063829787234043
16393.939393939392,-0.09574468085106383,0.9936170212765958,0.35212765957446807
16404.040404040403,-0.03404255319148936,0.8382978723404255,0.4021276595744681
16414.141414141413,-0.06595744680851064,0.7404255319148936,0.2297872340425532
16424.242424242424,-0.26063829787234044,0.7042553191489361,-0.052127659574468084
16434.343434343435,-0.4531914893617021,0.6936170212765957,-0.19893617021276597
16444.444444444445,-0.3404255319148936,0.6542553191489362,-0.1478723404255319
16454.545454545456,0.014893617021276596,0.6074468085106383,0.014893617021276596
16464.646464646463,0.3851063829787234,0.4968085106382979,0.17446808510638298
16474.747474747473,0.5074468085106383,0.32978723404255317,0.2297872340425532
16484.848484848484,0.5106382978723404,0.16063829787234044,0.2127659574468085
16494.949494949495,0.5085106382978724,0.04042553191489362,0.1851063829787234
16505.050505050505,0.5138297872340426,0.006382978723404255,0.14361702127659576
16515.151515151516,0.4521276595744681,0.045744680851063826,0.1074468085106383
16525.252525252527,0.40106382978723404,0.08297872340425531,0.15106382978723404
16535.353535353534,0.28936170212765955,0.07021276595744681,0.2148936170212766
16545.454545454544,0.043617021276595745,0.05638297872340425,0.2553191489361702
16555.555555555555,-0.18829787234042553,0.06382978723404255,0.26063829787234044
16565.656565656565,-0.35319148936170214,0.1276595744680851,0.251063829787234
16575.757575757576,-0.4978723404255319,0.26170212765957446,0.2127659574468085
16585.858585858587,-0.5776595744680851,0.3882978723404255,0.17127659574468085
16595.959595959597,-0.5053191489361702,0.48829787234042554,0.1797872340425532
16606.060606060608,-0.3819148936170213,0.5468085106382978,0.17127659574468085
16616.161616161615,-0.3882978723404255,0.5446808510638298,0.10319148936170212
16626.262626262625,-0.4765957446808511,0.5148936170212766,0.023404255319148935
16636.363636363636,-0.4946808510638298,0.5414893617021277,-0.05106382978723404
16646.464646464647,-0.46702127659574466,0.6436170212765957,-0.12234042553191489
16656.565656565657,-0.42872340425531913,0.7957446808510639,-0.19148936170212766
16666.666666666668,-0.3574468085106383,0.95,-0.22340425531914893
16676.767676767675,-0.251063829787234,1.1212765957446809,-0.26276595744680853
16686.868686868685,-0.1829787234042553,1.2851063829787235,-0.35319148936170214
16696.969696969696,-0.06808510638297872,1.402127659574468,-0.4095744680851064
16707.070707070707,0.21382978723404256,1.495744680851064,-0.4627659574468085
16717.171717171717,0.5223404255319148,1.6393617021276596,-0.5457446808510639
16727.272727272728,0.7223404255319149,1.8404255319148937,-0.7180851063829787
16737.37373737374,0.9159574468085107,2.0851063829787235,-0.8957446808510638
16747.47474747475,1.221276595744681,2.3117021276595744,-0.9202127659574468
16757.575757575756,1.1159574468085107,2.524468085106383,-0.95
16767.676767676767,1.048936170212766,2.630851063829787,-0.9702127659574468
16777.777777777777,1.35,2.7085106382978723,-0.9319148936170213
16787.878787878788,1.1797872340425533,2.7563829787234044,-1.2234042553191489
16797.9797979798,1.1457446808510638,2.5638297872340425,-1.548936170212766
16808.08080808081,1.2127659574468086,2.358510638297872,-1.7946808510638297
16818.18181818182,1.0819148936170213,2.274468085106383,-2.117021276595745
16828.282828282827,1.146808510638298,2.24468085106383,-2.247872340425532
16838.383838383837,1.474468085106383,2.326595744680851,-2.051063829787234
16848.484848484848,1.998936170212766,2.3957446808510636,-1.5606382978723403
16858.58585858586,2.429787234042553,2.331914893617021,-0.9042553191489362
16868.68686868687,2.525531914893617,2.1840425531914893,-0.4542553191489362
16878.78787878788,2.3297872340425534,2.0361702127659576,-0.37659574468085105
16888.88888888889,1.877659574468085,1.9542553191489362,-0.6148936170212767
16898.989898989897,1.2680851063829788,1.9563829787234042,-0.9989361702127659
16909.090909090908,0.7127659574468085,2.0659574468085107,-1.3446808510638297
16919.19191919192,0.44680851063829785,2.1042553191489364,-1.3787234042553191
16929.29292929293,0.3925531914893617,2.025531914893617,-1.2329787234042553
16939.39393939394,0.42127659574468085,1.8861702127659574,-1.0893617021276596
16949.49494949495,0.4957446808510638,1.7127659574468086,-1.0563829787234043
16959.59595959596,0.46702127659574466,1.5223404255319148,-1.1180851063829786
16969.696969696968,0.4553191489361702,1.2872340425531914,-1.172340425531915
16979.79797979798,0.5393617021276595,0.9808510638297873,-1.125531914893617
16989.89898989899,0.6925531914893617,0.6531914893617021,-0.9638297872340426
17000,0.7861702127659574,0.37446808510638296,-0.7680851063829788
17009.90099009901,0.801063829787234,0.13404255319148936,-0.5606382978723404
17019.80198019802,0.7148936170212766,-0.02553191489361702,-0.37553191489361704
17029.70297029703,0.5617021276595745,-0.08936170212765958,-0.28297872340425534
17039.603960396038,0.3127659574468085,-0.06595744680851064,-0.30957446808510636
17049.50495049505,0.12446808510638298,-0.052127659574468084,-0.34893617021276596
17059.40594059406,0.06489361702127659,-0.0797872340425532,-0.32340425531914896
17069.30693069307,0.11702127659574468,-0.1702127659574468,-0.22127659574468084
17079.20792079208,0.23617021276595745,-0.2425531914893617,-0.06489361702127659
17089.10891089109,0.4276595744680851,-0.2925531914893617,0.11914893617021277
17099.0099009901,0.5617021276595745,-0.30851063829787234,0.25
17108.91089108911,0.6095744680851064,-0.30106382978723406,0.2851063829787234
17118.811881188118,0.625531914893617,-0.30319148936170215,0.2734042553191489
17128.712871287127,0.5808510638297872,-0.28297872340425534,0.19893617021276597
17138.61386138614,0.5148936170212766,-0.21914893617021278,0.09148936170212765
17148.51485148515,0.4595744680851064,-0.11702127659574468,0.0010638297872340426
17158.41584158416,0.3904255319148936,-0.015957446808510637,-0.04042553191489362
17168.31683168317,0.2946808510638298,0.06170212765957447,-0.04680851063829787
17178.21782178218,0.15531914893617021,0.09361702127659574,-0.039361702127659576
17188.118811881188,0.07021276595744681,0.04042553191489362,-0.02553191489361702
17198.019801980197,0.04148936170212766,-0.04893617021276596,-0.02127659574468085
17207.920792079207,0.04148936170212766,-0.10851063829787234,-0.06702127659574468
17217.821782178216,0.06063829787234042,-0.10638297872340426,-0.12234042553191489
17227.72277227723,0.15851063829787235,-0.10851063829787234,-0.09680851063829787
17237.62376237624,0.25851063829787235,-0.1595744680851064,0.0031914893617021275
17247.52475247525,0.2680851063829787,-0.21808510638297873,0.06489361702127659
17257.425742574258,0.2670212765957447,-0.3148936170212766,0.13085106382978723
17267.326732673268,0.24148936170212765,-0.4553191489361702,0.17872340425531916
17277.227722772277,0.15106382978723404,-0.5659574468085107,0.10957446808510639
17287.128712871287,0.04468085106382979,-0.652127659574468,-0.02553191489361702
17297.029702970296,0.011702127659574468,-0.7659574468085106,-0.07553191489361702
17306.930693069306,-0.04680851063829787,-0.8723404255319149,-0.04680851063829787
17316.831683168315,-0.11170212765957446,-0.9074468085106383,0.03829787234042553
17326.73267326733,-0.28404255319148936,-0.8531914893617021,0.12340425531914893
17336.633663366338,-0.5670212765957446,-0.7329787234042553,0.16808510638297872
17346.534653465347,-0.8468085106382979,-0.6,0.1723404255319149
17356.435643564357,-0.9117021276595745,-0.5393617021276595,0.2053191489361702
17366.336633663366,-0.7968085106382978,-0.5106382978723404,0.24680851063829787
17376.237623762376,-0.7308510638297873,-0.4319148936170213,0.1595744680851064
17386.138613861385,-0.5468085106382978,-0.3872340425531915,0.047872340425531915
17396.039603960395,-0.2702127659574468,-0.39893617021276595,0.026595744680851064
17405.940594059404,-0.045744680851063826,-0.43617021276595747,0.03829787234042553
17415.841584158417,0.07765957446808511,-0.44574468085106383,0.1
17425.742574257427,0.05,-0.3840425531914894,0.1478723404255319
17435.643564356436,-0.030851063829787233,-0.28936170212765955,0.2053191489361702
17445.544554455446,-0.15851063829787235,-0.20212765957446807,0.22340425531914893
17455.445544554455,-0.36914893617021277,-0.1074468085106383,0.1372340425531915
17465.346534653465,-0.5159574468085106,-0.04042553191489362,0.031914893617021274
17475.247524752474,-0.5702127659574469,-0.02872340425531915,-0.02553191489361702
17485.148514851484,-0.674468085106383,-0.018085106382978722,-0.07553191489361702
17495.049504950493,-0.7723404255319148,-0.002127659574468085,-0.11063829787234042
17504.950495049507,-0.7553191489361702,-0.039361702127659576,-0.052127659574468084
17514.851485148516,-0.747872340425532,-0.11063829787234042,-0.014893617021276596
17524.752475247526,-0.7893617021276595,-0.20212765957446807,-0.036170212765957444
17534.653465346535,-0.9117021276595745,-0.30957446808510636,-0.15425531914893617
17544.554455445545,-0.8872340425531915,-0.46808510638297873,-0.16063829787234044
17554.455445544554,-0.7393617021276596,-0.6063829787234043,-0.08191489361702127
17564.356435643564,-0.44042553191489364,-0.6787234042553192,0.06063829787234042
17574.257425742573,-0.01276595744680851,-0.6968085106382979,0.2521276595744681
17584.158415841583,0.35425531914893615,-0.6893617021276596,0.46063829787234045
17594.059405940596,0.47127659574468084,-0.6680851063829787,0.6468085106382979
17603.960396039605,0.42659574468085104,-0.6829787234042554,0.7712765957446809
17613.861386138615,0.2712765957446808,-0.6914893617021277,0.8404255319148937
17623.762376237624,0.15212765957446808,-0.7106382978723405,0.8957446808510638
17633.663366336634,0.09680851063829787,-0.7351063829787234,0.9180851063829787
17643.564356435643,0.1702127659574468,-0.8148936170212766,0.8978723404255319
17653.465346534653,0.225531914893617,-0.9234042553191489,0.8308510638297872
17663.366336633662,0.25,-1.127659574468085,0.7734042553191489
17673.26732673267,0.20638297872340425,-1.3585106382978724,0.725531914893617
17683.16831683168,0.13829787234042554,-1.6095744680851063,0.7361702127659574
17693.069306930694,-0.014893617021276596,-1.8702127659574468,0.7861702127659574
17702.970297029704,-0.20957446808510638,-2.125531914893617,0.8531914893617021
17712.871287128713,-0.37872340425531914,-2.328723404255319,0.9287234042553192
17722.772277227723,-0.5117021276595745,-2.473404255319149,1.0191489361702128
17732.673267326732,-0.7191489361702128,-2.545744680851064,1.0457446808510638
